Jaz Data File
++++++++++++++++++++++++++++++++++++
Date: Thu Sep 26 04:28:45 2019
User: jaz
Dark Spectrum Present: Yes
Reference Spectrum Present: Yes
Processed Spectrum Present: Yes
Spectrometers: JAZA3541
Integration Time (usec): 100000 (JAZA3541)
Spectra Averaged: 1 (JAZA3541)
Boxcar Smoothing: 10 (JAZA3541)
Correct for Electrical Dark: No (JAZA3541)
Strobe/Lamp Enabled: Yes (JAZA3541)
Correct for Detector Non-linearity: No (JAZA3541)
Correct for Stray Light: No (JAZA3541)
Number of Pixels in Processed Spectrum: 2048
>>>>>Begin Processed Spectral Data<<<<<
W	D	R	S	P
190.543274	0.000000	0.000000	0.000000	0.000000
190.921555	0.000000	0.000000	0.000000	0.000000
191.299805	1296.805664	1336.172974	1169.440796	-323.529510
191.678024	1229.649658	1322.278564	1236.596802	7.499974
192.056229	1345.435913	1313.015747	1236.596802	335.714233
192.434387	1331.541504	1278.279907	1181.019409	282.609039
192.812531	1303.752808	1324.594360	1215.755249	-422.221710
193.190659	1310.699951	1296.805664	1218.071045	666.669006
193.568741	1319.962891	1359.330200	1174.072266	-370.588257
193.946793	0.000000	0.000000	0.000000	0.000000
194.324829	1207.815674	1211.785522	1106.916260	-2541.643799
194.702835	1271.994385	1273.317627	1165.140137	-8075.184570
195.080811	1337.606445	1335.070313	1222.702515	4530.674805
195.458755	1337.827148	1332.203125	1224.466797	2015.645020
195.836685	1338.268188	1331.541626	1221.599731	1734.443970
196.214569	1339.811890	1336.172974	1220.276489	3284.917725
196.592422	1341.907104	1340.032471	1223.033447	6341.166992
196.970261	1342.679077	1342.127686	1224.687500	21398.871094
197.348068	1343.781860	1343.120117	1226.782715	17680.447266
197.725861	1344.222900	1342.127563	1229.208618	5489.059082
198.103622	1343.561279	1338.157837	1225.348999	2187.721680
198.481323	1340.253052	1337.496216	1228.546875	4051.970459
198.859039	1337.937378	1335.290771	1222.812622	4349.900879
199.236694	1335.070313	1335.621460	1222.922974	-20347.972656
199.614334	1333.416138	1335.511230	1223.143433	-5263.380371
199.991959	1329.115479	1337.937134	1224.687256	-1183.771240
200.369553	1324.373657	1337.826904	1223.584473	-749.181091
200.747101	1322.499023	1341.355835	1221.489502	-535.665955
201.124619	1320.514038	1341.576294	1224.136108	-457.585968
201.502136	1316.323608	1346.538452	1223.364136	-307.661591
201.879623	1313.677246	1349.736450	1224.797852	-246.481857
202.257065	1311.030640	1351.500854	1228.216309	-204.630325
202.634476	1309.927979	1352.934570	1230.090820	-185.639359
203.011871	1305.186279	1354.809082	1230.311401	-150.888046
203.389221	1303.091064	1361.866455	1230.531860	-123.451675
203.766571	1304.745117	1367.931519	1234.060669	-111.866554
204.143875	1300.334229	1365.064331	1237.148193	-97.614609
204.521164	1296.254272	1365.284912	1238.250977	-84.025436
204.898392	1297.798096	1363.300049	1241.118164	-86.531670
205.275620	1298.459717	1368.703369	1237.920044	-86.185257
205.652817	1293.718018	1368.482910	1239.353760	-72.713615
206.029984	1293.607666	1372.673218	1241.338501	-66.108643
206.407135	1291.953613	1374.988892	1235.714600	-67.729057
206.784225	1292.394775	1374.437378	1238.471436	-65.726021
207.161301	1293.607910	1372.893555	1234.391235	-74.687767
207.538376	1298.570190	1373.555176	1231.193481	-89.853600
207.915405	1302.209229	1370.798462	1231.634521	-102.894730
208.292404	1303.422119	1370.798584	1231.965332	-106.056007
208.669373	1305.406860	1366.718506	1238.361084	-109.352432
209.046310	1302.319336	1363.961670	1238.802124	-103.041542
209.423218	1303.863159	1361.645874	1238.250732	-113.550270
209.800095	1305.737793	1357.124756	1236.707031	-134.335159
210.176956	1308.715210	1353.265137	1235.935303	-163.367065
210.553787	1308.163818	1355.911743	1237.589233	-147.806595
210.930603	1309.597412	1356.242554	1238.471313	-152.483398
211.307358	1315.221313	1353.485718	1238.802246	-199.713196
211.684113	1317.316406	1349.846680	1239.353638	-239.662201
212.060837	1316.985596	1348.413086	1238.581665	-249.475632
212.437531	1316.765015	1350.839233	1237.258423	-233.333572
212.814178	1314.008179	1354.037109	1232.626953	-203.306015
213.190826	1312.574585	1351.280273	1234.281006	-202.279251
213.567413	1313.125977	1352.383057	1234.832397	-199.438110
213.943985	1310.258789	1357.345337	1234.942749	-159.952347
214.320541	1309.266479	1357.124756	1241.117920	-142.396606
214.697052	1307.612305	1361.315186	1242.441162	-121.355019
215.073563	1309.266357	1363.300049	1245.639160	-117.754677
215.449997	1303.863159	1360.874023	1249.167969	-95.938187
215.826431	1301.326904	1362.086914	1249.719116	-84.937096
216.202850	1300.334351	1364.954102	1248.506104	-80.204964
216.579224	1298.459717	1369.695923	1246.521240	-72.910225
216.955582	1300.885742	1374.989014	1248.285767	-70.981987
217.331894	1300.554932	1374.217041	1248.726807	-70.359276
217.708191	1300.003418	1376.863647	1250.050049	-64.992477
218.084442	1300.113770	1383.480103	1248.395874	-62.036907
218.460678	1296.915771	1384.141602	1243.874756	-60.808842
218.836899	1295.041260	1385.685303	1245.639282	-54.501076
219.213074	1292.615234	1387.339478	1247.182983	-47.962643
219.589233	1294.269287	1392.191650	1248.175537	-47.071728
219.965347	1296.805542	1398.697510	1246.962524	-48.917515
220.341431	1295.592529	1399.359131	1247.182983	-46.652340
220.717499	1296.254150	1400.241455	1248.726807	-45.704948
221.093552	1295.041260	1402.336548	1250.491211	-41.520973
221.469543	1299.011108	1407.078247	1251.152710	-44.285801
221.845535	1302.980835	1407.409058	1252.917114	-47.940796
222.221466	1305.296631	1411.709595	1251.373291	-50.673656
222.597397	1305.186279	1417.884766	1249.939697	-49.021584
222.973297	1302.760376	1426.706543	1254.130127	-39.234978
223.349167	1300.554932	1437.403076	1249.939697	-36.986423
223.725006	1297.467285	1446.996826	1248.065063	-33.038437
224.100800	1295.041260	1454.385010	1250.160156	-28.166216
224.476578	1295.372070	1465.081543	1247.844482	-28.005264
224.852325	1297.577515	1475.778076	1250.601318	-26.361420
225.228058	1298.680298	1495.847778	1252.475952	-23.434059
225.603760	1297.577637	1523.195313	1249.829468	-21.163311
225.979416	1295.261963	1552.086792	1252.806885	-16.530752
226.355057	1295.372192	1590.351318	1258.651367	-12.448618
226.730652	1296.805664	1642.069214	1259.312988	-10.859147
227.106232	1296.915894	1691.912231	1261.297852	-9.017309
227.481796	1294.159180	1736.903687	1269.127197	-5.653821
227.857315	1292.946167	1778.145630	1275.302490	-3.636376
228.232788	1296.033813	1815.638184	1282.249756	-2.652799
228.608246	1296.695435	1848.058350	1285.668091	-2.000015
228.983704	1297.026245	1883.345459	1287.432495	-1.636267
229.359100	1297.577637	1916.206665	1290.409790	-1.158666
229.734482	1293.166748	1945.870117	1293.718140	0.084478
230.109833	1290.189453	1973.768921	1299.341919	1.338903
230.485153	1290.189331	1989.979126	1303.752930	1.938239
230.860443	1289.527710	2012.585205	1305.627563	2.226635
231.235703	1293.166748	2031.331421	1311.582031	2.494739
231.610931	1293.607788	2055.481445	1318.198364	3.227645
231.986145	1293.056396	2079.300049	1324.263428	3.969130
232.361313	1290.189209	2098.708252	1330.438599	4.978162
232.736465	1287.983765	2121.313965	1330.769531	5.134311
233.111572	1285.888550	2134.656982	1336.172852	5.924384
233.486664	1288.865845	2141.052734	1344.553589	6.534687
233.861725	1290.409668	2141.604248	1349.846680	6.982776
234.236755	1292.284302	2138.957520	1354.257568	7.319621
234.611771	1296.474731	2120.873047	1357.455444	7.396996
234.986740	1298.900635	2101.023926	1363.189697	8.014860
235.361679	1299.782959	2083.710938	1363.520508	8.130536
235.736588	1298.570068	2073.235107	1367.049194	8.839837
236.111496	1297.908447	2069.375488	1368.372437	9.133765
236.486343	1298.459717	2071.139893	1372.783447	9.618952
236.861160	1301.106323	2071.250000	1377.304565	9.894030
237.235962	1300.334351	2079.961426	1384.031128	10.735489
237.610733	1302.760376	2089.996338	1393.845459	11.570239
237.985474	1301.437134	2106.978271	1403.328979	12.648870
238.360199	1300.665283	2140.501221	1414.356323	13.537292
238.734879	1301.767944	2177.662842	1431.448486	14.805491
239.109543	1300.334473	2227.616455	1450.194824	16.161249
239.484177	1304.635132	2281.650146	1468.941162	16.817144
239.858749	1310.810303	2350.680908	1490.885376	17.317066
240.233322	1311.361694	2434.047119	1522.643921	18.819361
240.607864	1313.126099	2511.899414	1556.718140	20.320108
240.982391	1314.559570	2592.618896	1583.624634	21.052628
241.356857	1316.213745	2651.063232	1610.310669	22.032217
241.731308	1315.000610	2704.435059	1629.828857	22.658733
242.105728	1317.977905	2744.684814	1649.236816	23.218428
242.480118	1312.354126	2785.926758	1674.599487	24.582796
242.854492	1310.479492	2835.880127	1695.882202	25.265671
243.228836	1309.045898	2893.442383	1715.731201	25.668152
243.603134	1312.905518	2957.290283	1739.880981	25.965666
243.977402	1312.023193	3046.721436	1776.932617	26.800594
244.351654	1310.920532	3168.241699	1826.224487	27.744473
244.725861	1310.810303	3315.235107	1884.558594	28.624086
245.100067	1311.912964	3466.970215	1947.083130	29.473473
245.474213	1311.361694	3603.377197	2003.763184	30.209284
245.848343	1316.985474	3710.341553	2048.644043	30.570404
246.222443	1318.198486	3794.700195	2090.437744	31.182667
246.596512	1318.419067	3855.019287	2121.645020	31.665455
246.970566	1321.286133	3892.181641	2147.559082	32.139500
247.344574	1320.845093	3904.862793	2164.209961	32.637737
247.718567	1317.206055	3891.740234	2170.826172	33.156292
248.092529	1318.749756	3859.430420	2163.217285	33.237846
248.466431	1315.441650	3833.075195	2157.924072	33.463268
248.840332	1313.236206	3807.051025	2157.593262	33.858047
249.214203	1311.030640	3809.476563	2157.372803	33.874744
249.588043	1313.787598	3825.797363	2171.377197	34.139580
249.961838	1310.038330	3853.696045	2188.910645	34.551517
250.335617	1313.677124	3886.888428	2201.150879	34.488956
250.709381	1313.456665	3901.664795	2214.383789	34.808914
251.083084	1318.198608	3899.569824	2219.566895	34.918198
251.456787	1314.780029	3882.367188	2216.038086	35.101360
251.830460	1316.434204	3829.656738	2196.078857	35.000664
252.204071	1313.456787	3746.069824	2167.848877	35.122402
252.577667	1310.038452	3638.995117	2131.899902	35.288826
252.951248	1310.369263	3513.615234	2089.334473	35.355343
253.324799	1308.604858	3406.099365	2049.416016	35.318859
253.698303	1305.737671	3326.152100	2021.627075	35.432800
254.071793	1305.296631	3267.817627	1996.705566	35.230652
254.445236	1304.083618	3233.853760	1978.069702	34.925720
254.818665	1300.113770	3219.959473	1971.012329	34.945442
255.192062	1300.003418	3219.077393	1971.563599	34.993969
255.565430	1300.444458	3243.888672	1985.347900	35.241734
255.938782	1301.878052	3283.365967	2004.755737	35.472218
256.312103	1304.745117	3340.266846	2026.258911	35.446136
256.685364	1306.730225	3419.442383	2054.708984	35.403725
257.058594	1304.965820	3518.357178	2092.753174	35.591869
257.431793	1302.098633	3646.714600	2133.884766	35.476433
257.804993	1302.760254	3790.178955	2180.088867	35.270645
258.178162	1299.672729	3928.240234	2229.270752	35.365196
258.551270	1298.128906	4052.517578	2269.630371	35.271038
258.924377	1294.379639	4145.587402	2306.682129	35.504341
259.297485	1293.938599	4222.999023	2336.786377	35.603489
259.670502	1293.056396	4286.625977	2361.156738	35.679825
260.043518	1295.151489	4346.063477	2381.336426	35.601974
260.416473	1298.569946	4394.473145	2397.105469	35.483521
260.789459	1297.026123	4449.830078	2412.102783	35.367775
261.162354	1297.246704	4497.467773	2427.651123	35.322697
261.535278	1298.349365	4541.796875	2438.567871	35.154522
261.908142	1298.790527	4576.092285	2447.059082	35.037010
262.280975	1301.216553	4595.279297	2454.778076	35.019417
262.653717	1302.870605	4609.834961	2456.101318	34.872787
263.026520	1300.113892	4627.809570	2456.322021	34.745007
263.399261	1297.357056	4643.688477	2450.698242	34.465836
263.771973	1296.915894	4654.495605	2446.617920	34.241989
264.144653	1298.239258	4653.502930	2443.861328	34.144024
264.517334	1301.106323	4633.103027	2434.598389	34.018406
264.889954	1302.208862	4586.678223	2419.270508	34.010414
265.262543	1305.627563	4506.179199	2394.900146	34.033901
265.635071	1308.053589	4405.610840	2353.658447	33.755791
266.007599	1311.802856	4310.224609	2313.629395	33.411793
266.380127	1312.133545	4240.201660	2280.878418	33.084778
266.752594	1315.882935	4205.575684	2254.523193	32.482353
267.125031	1315.000732	4197.084473	2247.245117	32.346195
267.497437	1313.236328	4212.963867	2251.545654	32.358536
267.869843	1316.544556	4239.098633	2252.317627	32.019016
268.242218	1313.567261	4277.473633	2263.786133	32.059681
268.614532	1311.913208	4335.697754	2286.943115	32.245350
268.986816	1312.354126	4430.973633	2312.416016	32.067451
269.359100	1311.471924	4539.150879	2342.520752	31.943972
269.731354	1310.038452	4652.510742	2376.594971	31.909212
270.103516	1311.030762	4749.219727	2403.611572	31.777800
270.475708	1311.361572	4830.049805	2424.342529	31.630564
270.847839	1314.890381	4902.499023	2445.845947	31.523939
271.219971	1318.419067	4961.053711	2461.394287	31.377707
271.592041	1320.403809	5006.596191	2475.068359	31.324045
271.964081	1321.065552	5036.369629	2479.589111	31.182468
272.336151	1316.434204	5064.048340	2481.133057	31.078407
272.708130	1316.654785	5090.182129	2476.942627	30.748096
273.080109	1313.015869	5107.385254	2473.193359	30.576292
273.452026	1311.582275	5141.238770	2480.140625	30.513399
273.823914	1310.369263	5176.085449	2488.190430	30.468380
274.195770	1310.369263	5215.893555	2493.814453	30.301825
274.567627	1309.376831	5261.987793	2508.150391	30.328651
274.939423	1310.700073	5304.332031	2517.192627	30.210409
275.311249	1312.243896	5345.464355	2518.956787	29.919338
275.682983	1310.479492	5376.120117	2531.086670	30.022505
276.054688	1309.707520	5401.151855	2529.653076	29.816990
276.426422	1307.943115	5403.577148	2514.766357	29.466091
276.798065	1312.243896	5370.495117	2499.769287	29.261997
277.169708	1313.236206	5325.172852	2486.536865	29.245245
277.541321	1317.757446	5277.536133	2470.657471	29.115263
277.912903	1316.985352	5267.832031	2465.254150	29.063866
278.284424	1316.764893	5279.741211	2463.930908	28.947083
278.655945	1315.882813	5301.685547	2469.775391	28.950068
279.027435	1312.574707	5332.010254	2480.140869	29.048014
279.398865	1310.920532	5391.226563	2497.563721	29.082211
279.770294	1307.502075	5467.424805	2524.580566	29.257236
280.141663	1310.810303	5539.763672	2552.810303	29.368971
280.513031	1313.015869	5615.631348	2587.766846	29.627352
280.884369	1315.993164	5680.912598	2616.106689	29.785511
281.255676	1314.559570	5725.462402	2640.035889	30.050001
281.626953	1313.787720	5763.727051	2654.812500	30.135798
281.998199	1316.654907	5805.189453	2677.197998	30.311520
282.369385	1313.346680	5856.245605	2701.347412	30.553194
282.740540	1313.236328	5915.572754	2727.151367	30.721680
283.111694	1311.802856	5983.280273	2760.233154	31.005829
283.482819	1310.479492	6070.064941	2793.976563	31.168619
283.853912	1314.559570	6165.339844	2836.541992	31.376034
284.224945	1315.441772	6257.858398	2883.077148	31.717995
284.595978	1313.346436	6348.502930	2926.855225	32.044861
284.966980	1311.030762	6425.914551	2965.561035	32.347366
285.337952	1309.817749	6500.238281	3005.369141	32.666939
285.708893	1306.730103	6535.746094	3034.701660	33.045826
286.079803	1305.406860	6558.352051	3066.460205	33.525066
286.450684	1304.745239	6574.893066	3093.587158	33.942917
286.821533	1307.391846	6588.677246	3116.303223	34.251347
287.192322	1306.399414	6596.506836	3150.267090	34.855015
287.563110	1307.391968	6602.571289	3176.622803	35.300613
287.933868	1303.642700	6627.272461	3212.681641	35.859722
288.304596	1299.672852	6668.735352	3255.247070	36.423012
288.675262	1300.885742	6725.304199	3306.523438	36.974243
289.045929	1301.326782	6777.683594	3366.952637	37.718979
289.416565	1300.113770	6826.645020	3420.655762	38.370216
289.787170	1296.805664	6843.957520	3466.198730	39.108234
290.157745	1293.718018	6845.170898	3508.874268	39.902279
290.528259	1293.497437	6840.870605	3551.328857	40.700912
290.898773	1294.820801	6830.614746	3590.144775	41.463322
291.269226	1294.269287	6813.852539	3625.762695	42.240391
291.639679	1290.630371	6797.202148	3666.232422	43.141216
292.010101	1294.820801	6810.876465	3716.186035	43.896679
292.380463	1293.828369	6840.539551	3777.387207	44.775341
292.750824	1298.680298	6882.332031	3841.014404	45.531742
293.121155	1300.775391	6928.756836	3902.325439	46.225277
293.491455	1307.502197	6990.068359	3972.349365	46.895134
293.861725	1310.920532	7072.000977	4051.524902	47.571014
294.231964	1313.125977	7184.479004	4138.971191	48.129372
294.602142	1314.669678	7298.721680	4238.106445	48.853802
294.972321	1314.669800	7398.077148	4327.096191	49.518734
295.342468	1316.213623	7496.991699	4406.603027	50.000004
295.712555	1317.095825	7559.295410	4469.568359	50.502594
296.082672	1318.419067	7583.776855	4515.772461	51.032257
296.452728	1315.882813	7585.761719	4541.466309	51.445705
296.822693	1319.080688	7589.400879	4556.574219	51.632030
297.192657	1321.065552	7589.180664	4584.914551	52.070663
297.562622	1322.388916	7606.824219	4615.349609	52.398670
297.932556	1326.027954	7627.886230	4642.697266	52.630020
298.302460	1328.233398	7634.833496	4660.120117	52.831741
298.672333	1327.792358	7640.347656	4682.836426	53.148746
299.042145	1329.005127	7636.597656	4697.061523	53.396858
299.411957	1330.218140	7623.033691	4705.772949	53.641407
299.781677	1326.027954	7584.768555	4702.023438	53.940495
300.151428	1326.579224	7523.125977	4679.748047	54.113510
300.521149	1326.248291	7458.727051	4658.354980	54.335400
300.890839	1322.829956	7386.829590	4632.000000	54.570747
301.260468	1317.095825	7310.961914	4597.594727	54.730934
301.630096	1318.418945	7223.515625	4550.508789	54.733902
301.999695	1319.080688	7102.436523	4494.269531	54.902187
302.369232	1316.323975	6976.063965	4440.457031	55.199230
302.738739	1314.449219	6859.727051	4373.300781	55.161377
303.108246	1310.699951	6722.106445	4308.019531	55.388924
303.477692	1311.251343	6610.841309	4251.560059	55.481815
303.847137	1311.361816	6522.182129	4206.788574	55.565662
304.216553	1311.361572	6456.680176	4175.691895	55.668671
304.585876	1310.369141	6397.794434	4153.527344	55.885994
304.955231	1309.597046	6350.267090	4128.385254	55.920902
305.324493	1306.619751	6311.010254	4112.285156	56.064079
305.693787	1306.178711	6280.244629	4098.280762	56.133194
306.063049	1306.509521	6274.399414	4093.538574	56.100864
306.432251	1307.391846	6272.414551	4091.443848	56.073299
306.801422	1305.627319	6267.783691	4098.611816	56.285702
307.170593	1304.524658	6268.334961	4096.516602	56.246948
307.539673	1303.642456	6275.171875	4102.471191	56.297134
307.908783	1304.304077	6290.831055	4112.946777	56.324627
308.277832	1302.650146	6307.150879	4129.267090	56.481495
308.646851	1300.444702	6338.357910	4148.234375	56.527168
309.015839	1303.973389	6378.717773	4169.516602	56.466751
309.384796	1298.239258	6410.586914	4196.753906	56.696354
309.753723	1295.151733	6446.205566	4222.447754	56.829071
310.122620	1294.600220	6472.339844	4233.584961	56.761929
310.491486	1296.144165	6484.690430	4245.494629	56.843487
310.860352	1299.342041	6501.231445	4259.719727	56.909660
311.229126	1299.452148	6515.456055	4272.400879	56.996674
311.597931	1298.680298	6523.726074	4285.633789	57.166073
311.966675	1300.224121	6544.016602	4304.711426	57.296074
312.335388	1300.665161	6579.523926	4322.354492	57.241337
312.704071	1298.680298	6617.236816	4348.709961	57.346947
313.072723	1301.326904	6632.564941	4363.707520	57.442200
313.441345	1301.988525	6630.139160	4371.756836	57.614147
313.809875	1302.650146	6611.061523	4365.582031	57.699596
314.178436	1298.459839	6573.018066	4354.995117	57.948650
314.546967	1304.193970	6535.194824	4325.883301	57.765034
314.915466	1304.635132	6494.283691	4303.498047	57.785473
315.283936	1308.604858	6440.911621	4269.423340	57.689819
315.652374	1309.266602	6398.125977	4241.745117	57.625458
316.020752	1307.943237	6345.084961	4207.009277	57.553791
316.389130	1313.236328	6299.542480	4185.726563	57.607578
316.757416	1313.346680	6259.072266	4168.083496	57.721294
317.125732	1312.574585	6233.378418	4150.881348	57.679737
317.494019	1313.126099	6201.399414	4130.259766	57.630447
317.862274	1315.441895	6169.530762	4104.786621	57.463818
318.230469	1314.338989	6137.441406	4087.143555	57.490063
318.598663	1315.441772	6109.211914	4065.860840	57.374863
318.966797	1315.221069	6076.571289	4047.224609	57.378754
319.334930	1314.449341	6049.113281	4028.588623	57.324852
319.703003	1310.148682	6018.347656	4001.681641	57.166931
320.071045	1307.612305	5975.341309	3970.584717	57.050709
320.439056	1306.178711	5939.722656	3945.994385	56.971848
320.807037	1306.399292	5937.627441	3940.591064	56.878906
321.175049	1305.296631	5958.910156	3935.407715	56.517612
321.542969	1301.878052	5990.778809	3956.800537	56.621422
321.910828	1306.178711	6035.219238	3969.482178	56.318050
322.278717	1304.965820	6093.112305	4005.651855	56.403580
322.646515	1308.053345	6142.183594	4036.307617	56.437336
323.014313	1307.501953	6192.908691	4069.720215	56.540192
323.382111	1304.855469	6229.739746	4099.493652	56.745255
323.749817	1304.745117	6278.259766	4123.092285	56.667114
324.117523	1303.752808	6305.828125	4135.553223	56.612511
324.485199	1301.326782	6320.052734	4139.963867	56.560913
324.852814	1304.193970	6319.501465	4136.655762	56.476334
325.220428	1306.399292	6317.957520	4138.530273	56.511982
325.588013	1305.075928	6324.794434	4146.579590	56.606831
325.955536	1308.384155	6334.498535	4145.586914	56.449226
326.323059	1308.825317	6352.804199	4154.959961	56.426380
326.690552	1309.597168	6376.622070	4164.553711	56.343842
327.058014	1311.030640	6396.030273	4167.972656	56.183720
327.425415	1314.338989	6409.152344	4176.684570	56.181561
327.792816	1317.977905	6423.708984	4190.689453	56.264450
328.160187	1320.955322	6430.545410	4191.129883	56.172310
328.527496	1321.837646	6416.541504	4176.023438	56.022602
328.894775	1322.940430	6410.255859	4175.582031	56.073612
329.262054	1325.697144	6391.839844	4156.394531	55.874805
329.629303	1323.712280	6378.275879	4148.564941	55.887173
329.996490	1321.837646	6364.161621	4142.610352	55.941914
330.363647	1317.977905	6370.558105	4149.226563	56.035698
330.730774	1316.985718	6381.474609	4149.116211	55.921349
331.097839	1316.544434	6412.020020	4161.025879	55.823669
331.464935	1316.103394	6438.044434	4173.707520	55.791428
331.831970	1312.353882	6459.437500	4184.514160	55.801701
332.198975	1311.802490	6487.336426	4197.856934	55.763412
332.565948	1311.582153	6516.007324	4219.470215	55.873379
332.932892	1304.965698	6553.610352	4235.791016	55.839661
333.299744	1305.406860	6581.950195	4254.316895	55.887157
333.666656	1301.878174	6619.553711	4274.716797	55.904850
334.033478	1300.444702	6650.540039	4293.353516	55.941223
334.400299	1300.665283	6674.027344	4311.989258	56.041706
334.767090	1298.570068	6710.527344	4332.389648	56.057716
335.133850	1299.562622	6735.669434	4348.047852	56.078465
335.500549	1296.805786	6758.166016	4357.972656	56.051365
335.867218	1291.622803	6781.985352	4376.167480	56.181076
336.233917	1292.725586	6818.154785	4395.464844	56.153816
336.600525	1292.505005	6834.694824	4408.256836	56.218788
336.967102	1293.938599	6855.757324	4419.835449	56.202782
337.333649	1296.915894	6867.004395	4431.303711	56.271778
337.700195	1294.269287	6866.563965	4429.649414	56.267303
338.066681	1296.254150	6856.970215	4419.504883	56.166344
338.433136	1295.813110	6847.266602	4419.394531	56.266010
338.799591	1296.254272	6825.983398	4404.838379	56.215847
339.165985	1296.584961	6811.758789	4398.442383	56.242241
339.532318	1300.775391	6816.390625	4398.993652	56.171761
339.898651	1300.995972	6828.851074	4409.469727	56.232910
340.264954	1300.444580	6846.163574	4416.527344	56.188980
340.631226	1305.627319	6861.712891	4431.744629	56.264744
340.997467	1305.406860	6901.410645	4441.669434	56.044685
341.363678	1306.840454	6942.652344	4466.811523	56.069492
341.729828	1308.274048	6995.914551	4498.128906	56.083977
342.095947	1305.627563	7056.674316	4535.180664	56.155918
342.462067	1306.178833	7114.677734	4567.710938	56.151031
342.828156	1305.076050	7183.377441	4610.827148	56.236500
343.194183	1304.414551	7254.171875	4658.906250	56.380310
343.560211	1309.597290	7313.718750	4686.805664	56.248169
343.926178	1311.582275	7371.282227	4718.012695	56.214504
344.292114	1310.259155	7404.143066	4741.611816	56.308140
344.658020	1307.502197	7440.643066	4765.540527	56.382832
345.023926	1307.943237	7478.025391	4779.545410	56.265087
345.389771	1309.817871	7515.187500	4793.770996	56.144169
345.755585	1307.061157	7535.036621	4809.980469	56.244911
346.121368	1309.376953	7556.099121	4817.810059	56.164387
346.487122	1309.707642	7582.233398	4832.035156	56.154854
346.852844	1309.597412	7608.037109	4848.355469	56.184681
347.218536	1308.163818	7628.216309	4864.234863	56.266476
347.584167	1309.487061	7650.822266	4873.717773	56.206314
347.949768	1309.487061	7669.127930	4878.790527	56.124294
348.315369	1310.259033	7693.718750	4884.304199	55.989155
348.680939	1312.684937	7708.384766	4899.191406	56.076839
349.046448	1312.464478	7717.426270	4905.145996	56.092163
349.411957	1310.810303	7721.727051	4909.226074	56.129501
349.777435	1313.677490	7716.654785	4904.263672	56.076820
350.142792	1315.772705	7705.848145	4903.160645	56.139996
350.508209	1317.757568	7707.170898	4900.293457	56.069874
350.873566	1320.734985	7710.369629	4893.457031	55.914341
351.238892	1324.153320	7723.822754	4904.924805	55.952446
351.604187	1317.647217	7751.722656	4924.222656	56.054295
351.969482	1319.521973	7817.224609	4953.113770	55.921177
352.334717	1317.647339	7876.330566	4987.188477	55.949356
352.699890	1318.308838	7959.255371	5037.692871	56.006840
353.065063	1317.647217	8043.062500	5090.072754	56.092087
353.430237	1317.095825	8157.305176	5141.680664	55.913273
353.795319	1313.456787	8287.425781	5214.019531	55.930317
354.160370	1313.897827	8413.466797	5285.255371	55.938007
354.525421	1315.441650	8548.000977	5362.776367	55.959923
354.890442	1315.993164	8704.146484	5458.824219	56.073971
355.255402	1310.589600	8870.106445	5562.039551	56.239708
355.620331	1311.912964	9055.035156	5671.871094	56.307495
355.985260	1311.913086	9232.242188	5781.371094	56.430206
356.350098	1310.699951	9388.499023	5873.228516	56.482323
356.714935	1313.015869	9533.837891	5956.153320	56.480209
357.079742	1313.456909	9660.432617	6034.777832	56.563251
357.444519	1311.361694	9805.770508	6116.379395	56.566826
357.809296	1311.030762	9967.540039	6212.537109	56.622200
358.173981	1309.266479	10156.877930	6316.193359	56.590717
358.538605	1307.171265	10367.388672	6437.052246	56.619839
358.903259	1303.091187	10606.127930	6572.246094	56.639080
359.267914	1305.958008	10871.113281	6725.525391	56.659481
359.632477	1302.208740	11147.125000	6884.427734	56.701538
359.997009	1303.091064	11412.661133	7043.000000	56.776985
360.361542	1299.893188	11615.783203	7167.057129	56.875019
360.726013	1303.201416	11769.945313	7259.576660	56.907619
361.090485	1304.304321	11863.676758	7328.056641	57.046501
361.454895	1310.259033	11911.866211	7366.099609	57.121910
361.819244	1311.251343	11933.588867	7378.560059	57.118393
362.183594	1308.935791	11933.038086	7376.133789	57.107864
362.547913	1305.958374	11891.907227	7342.279785	57.022011
362.912201	1310.148682	11832.580078	7300.486816	56.929218
363.276489	1311.692383	11753.514648	7258.913574	56.955780
363.640686	1309.045898	11666.289063	7196.168945	56.840637
364.004883	1308.053467	11603.984375	7157.242676	56.810692
364.369049	1307.502075	11540.247070	7123.719727	56.839272
364.733154	1305.627319	11501.651367	7091.630371	56.747639
365.097198	1305.296631	11440.780273	7062.297852	56.800457
365.461273	1304.855469	11349.916992	7005.507324	56.750790
365.825287	1303.863037	11219.022461	6939.563965	56.839241
366.189270	1305.517212	11049.423828	6844.398926	56.844574
366.553223	1306.509644	10853.798828	6730.598145	56.812862
366.917114	1304.083740	10603.810547	6580.957520	56.742249
367.281006	1309.156250	10322.946289	6420.731934	56.708397
367.644867	1308.715088	10066.894531	6265.247559	56.593178
368.008698	1311.251465	9856.163086	6141.411133	56.526733
368.372498	1305.958374	9704.648438	6046.355957	56.442104
368.736237	1305.075928	9600.442383	5979.641113	56.351524
369.099976	1302.429565	9538.358398	5928.695313	56.171753
369.463654	1301.988525	9494.360352	5902.229980	56.152737
369.827332	1302.208862	9463.153320	5883.152832	56.132523
370.190948	1304.193848	9440.435547	5871.022949	56.129467
370.554535	1302.650146	9416.837891	5858.782715	56.150204
370.918091	1301.106445	9393.791016	5842.352539	56.115448
371.281647	1303.091309	9380.999023	5845.439941	56.231747
371.645111	1305.848267	9366.443359	5837.279785	56.217083
372.008575	1305.186523	9363.686523	5837.390137	56.241280
372.371979	1305.406982	9347.367188	5837.831543	56.359703
372.735382	1308.604858	9362.143555	5836.508301	56.222530
373.098724	1308.384155	9392.909180	5859.224121	56.290752
373.462067	1307.501953	9422.242188	5872.456543	56.255093
373.825348	1305.847900	9491.492188	5910.831055	56.256821
374.188599	1304.855347	9567.139648	5959.792480	56.339588
374.551819	1305.517090	9684.690430	6031.138184	56.397221
374.915009	1303.091187	9826.390625	6114.615234	56.451424
375.278168	1303.532227	9977.463867	6201.729980	56.470329
375.641266	1299.672729	10109.459961	6274.069336	56.464436
376.004395	1302.319214	10216.204102	6340.453125	56.520069
376.367462	1305.296631	10289.535156	6391.178711	56.608936
376.730469	1302.980957	10335.959961	6426.686035	56.722210
377.093475	1300.995972	10366.173828	6450.174316	56.801735
377.456421	1299.672852	10399.367188	6468.369141	56.800770
377.819336	1303.201538	10434.763672	6495.717285	56.863384
378.182281	1304.304199	10477.661133	6514.794434	56.800255
378.545135	1306.619873	10523.974609	6536.518066	56.739693
378.907928	1304.965820	10570.621094	6557.028320	56.683121
379.270752	1303.752808	10610.319336	6577.869629	56.670918
379.633484	1304.304077	10644.283203	6594.961914	56.645283
379.996246	1308.604858	10675.931641	6614.038574	56.637646
380.358948	1305.737671	10694.016602	6625.397461	56.662777
380.721558	1306.509521	10717.394531	6627.603516	56.541908
381.084198	1307.281494	10758.856445	6646.018555	56.485161
381.446747	1309.156006	10778.814453	6660.904785	56.514702
381.809326	1310.589722	10797.670898	6662.668945	56.414391
382.171875	1312.574707	10791.716797	6655.832520	56.368576
382.534363	1312.354126	10755.877930	6639.511719	56.410702
382.896790	1311.361572	10704.710938	6608.635254	56.393871
383.259247	1315.441772	10669.204102	6586.471191	56.351967
383.621613	1316.544556	10660.161133	6582.611816	56.360058
383.983948	1316.765015	10687.950195	6597.167480	56.347218
384.346283	1317.647217	10738.124023	6629.257324	56.383671
384.708588	1315.772705	10823.144531	6672.264160	56.340397
385.070831	1320.073242	10899.012695	6714.938965	56.320072
385.433075	1315.662354	10992.963867	6759.157715	56.250134
385.795258	1316.765015	11075.448242	6816.278809	56.355076
386.157440	1312.133667	11151.536133	6876.046875	56.547268
386.519531	1312.795288	11244.496094	6926.110840	56.519173
386.881622	1310.810303	11316.504883	6977.718750	56.636829
387.243683	1310.700073	11391.710938	7016.424805	56.598736
387.605713	1307.391724	11473.091797	7057.556641	56.564377
387.967682	1309.817749	11555.907227	7111.589355	56.624249
388.329651	1307.832886	11652.283203	7167.718750	56.647629
388.691559	1308.053345	11748.441406	7238.403320	56.802010
389.053467	1303.752686	11868.749023	7294.200684	56.700905
389.415314	1301.326782	11987.513672	7365.436523	56.747185
389.777130	1303.752808	12107.820313	7437.775391	56.775124
390.138885	1299.782959	12230.442383	7497.874023	56.703724
390.500641	1300.665039	12323.181641	7565.140625	56.833443
390.862366	1296.584961	12410.408203	7617.630371	56.875526
391.224060	1296.364502	12484.620117	7651.042480	56.797752
391.585693	1297.246704	12571.514648	7686.771484	56.673527
391.947296	1298.569946	12659.623047	7736.063477	56.662827
392.308868	1304.524658	12724.023438	7777.415039	56.682789
392.670441	1304.304077	12789.525391	7828.471680	56.804890
393.031952	1307.171265	12819.077148	7857.473145	56.900234
393.393433	1306.399414	12846.205078	7862.765625	56.815224
393.754883	1308.494507	12861.644531	7861.221680	56.718098
394.116302	1307.502075	12850.395508	7862.104004	56.784740
394.477692	1311.141113	12853.373047	7852.841309	56.676212
394.839020	1310.589722	12852.491211	7848.541016	56.645355
395.200348	1310.589722	12851.718750	7844.902344	56.617619
395.561646	1308.825317	12834.958008	7833.212891	56.605175
395.922882	1312.574585	12799.230469	7809.174316	56.557796
396.284088	1313.787476	12739.682617	7771.130371	56.514980
396.645264	1316.103271	12662.161133	7738.710449	56.606510
397.006409	1316.985474	12567.545898	7681.699219	56.572414
397.367523	1312.905396	12464.992188	7617.190430	56.530094
397.728577	1317.426514	12368.834961	7565.472656	56.536198
398.089600	1319.080688	12297.267578	7512.872559	56.419083
398.450592	1319.631958	12241.248047	7474.387695	56.353893
398.811584	1319.631958	12182.804688	7444.613281	56.382988
399.172546	1317.536865	12098.225586	7409.655273	56.509548
399.533447	1316.323853	12017.835938	7363.341309	56.506199
399.894318	1310.479492	11962.148438	7327.613281	56.490055
400.255127	1308.935791	11911.533203	7285.268555	56.366688
400.615936	1307.502197	11882.752930	7267.625000	56.359165
400.976685	1307.171387	11886.833008	7272.477539	56.384655
401.337433	1305.517212	11916.826172	7281.188965	56.314186
401.698151	1304.745483	11971.852539	7316.477051	56.357655
402.058807	1301.657715	12056.542969	7373.267090	56.454433
402.419434	1299.672729	12151.487305	7434.467773	56.532436
402.780060	1297.467285	12260.105469	7491.588379	56.502102
403.140594	1296.364624	12359.020508	7547.055176	56.502617
403.501129	1292.394775	12453.856445	7604.727539	56.554714
403.861633	1291.181763	12540.641602	7649.939941	56.525009
404.222076	1289.196777	12626.102539	7692.504395	56.481968
404.582550	1287.983765	12698.000000	7741.575684	56.560757
404.942932	1289.307007	12768.574219	7785.795410	56.593231
405.303284	1293.607666	12843.891602	7835.969727	56.642437
405.663605	1292.174316	12899.579102	7873.241699	56.697151
406.023895	1293.056396	12936.077148	7904.229004	56.782284
406.384125	1290.409912	12989.669922	7931.025879	56.760994
406.744354	1290.850952	13056.826172	7973.039551	56.792473
407.104553	1291.291992	13123.429688	7994.211914	56.650116
407.464691	1296.364624	13183.198242	8035.895020	56.697437
407.824829	1296.916016	13253.110352	8069.308105	56.643375
408.184906	1296.805664	13333.279297	8109.997559	56.604553
408.544922	1298.129028	13397.016602	8141.756836	56.564110
408.904938	1299.562500	13444.985352	8176.052246	56.617954
409.264923	1300.224121	13466.709961	8191.049316	56.637760
409.624847	1298.239258	13452.485352	8185.535156	56.665760
409.984802	1301.437256	13428.113281	8176.051270	56.690014
410.344666	1303.091187	13393.708008	8164.252441	56.747814
410.704529	1305.076050	13355.223633	8145.064941	56.762699
411.064331	1307.612305	13323.023438	8133.044434	56.805649
411.424133	1306.399414	13317.508789	8127.862305	56.792946
411.783875	1306.509644	13312.107422	8123.670898	56.783188
412.143555	1310.369263	13321.479492	8130.177246	56.779163
412.503235	1308.274048	13338.792969	8143.850586	56.818638
412.862885	1304.635010	13348.716797	8153.113281	56.861771
413.222473	1305.406860	13404.625000	8181.894531	56.834152
413.582062	1303.642578	13483.800781	8215.527344	56.747086
413.941559	1302.870605	13553.383789	8265.590820	56.836147
414.301086	1304.855591	13638.513672	8309.588867	56.793640
414.660522	1306.399414	13709.198242	8370.901367	56.958935
415.019958	1303.863037	13795.209961	8412.584961	56.909168
415.379364	1302.429688	13906.364258	8489.445313	57.021999
415.738708	1300.555054	14027.223633	8552.962891	56.985909
416.098053	1300.996216	14169.366211	8652.208984	57.126217
416.457336	1300.996094	14353.409180	8754.430664	57.103882
416.816559	1302.870728	14553.443359	8864.152344	57.063812
417.175812	1306.840454	14794.830078	9001.221680	57.046169
417.535004	1302.319336	15084.958008	9159.573242	57.008343
417.894135	1306.289063	15413.351563	9349.903320	57.018349
418.253265	1303.091187	15806.914063	9578.607422	57.057484
418.612335	1300.775513	16211.945313	9823.633789	57.157543
418.971405	1302.870728	16630.541016	10068.216797	57.186420
419.330414	1304.304077	17066.005859	10332.761719	57.280983
419.689423	1303.642334	17500.701172	10581.755859	57.282703
420.048370	1306.178711	17901.873047	10821.929688	57.338669
420.407257	1306.619751	18312.748047	11041.482422	57.243259
420.766144	1307.281372	18696.716797	11255.743164	57.209805
421.125000	1310.479370	19089.509766	11482.793945	57.215233
421.483795	1311.692383	19479.652344	11704.111328	57.201900
421.842560	1309.817749	19892.181641	11927.192383	57.136841
422.201324	1305.627563	20295.669922	12164.499023	57.181919
422.560028	1306.730225	20666.406250	12375.892578	57.176380
422.918671	1310.259033	21005.935547	12563.577148	57.135986
423.277283	1307.281494	21295.291016	12725.457031	57.125126
423.635925	1306.950806	21519.697266	12851.940430	57.117371
423.994476	1306.178833	21684.664063	12953.060547	57.152836
424.353027	1301.437134	21815.447266	13025.176758	57.149914
424.711487	1299.562500	21918.664063	13085.827148	57.161873
425.069946	1303.422119	21966.853516	13111.301758	57.143848
425.428375	1300.003662	21932.335938	13092.445313	57.155155
425.786743	1302.980957	21839.044922	13023.083008	57.070827
426.145081	1302.650146	21688.634766	12929.460938	57.033352
426.503418	1303.201538	21511.423828	12822.937500	57.005192
426.861725	1303.642578	21295.402344	12689.067383	56.950588
427.219971	1305.958252	21063.716797	12549.351563	56.906223
427.578186	1305.737671	20870.742188	12435.330078	56.885204
427.936371	1306.509521	20683.941406	12341.819336	56.949287
428.294495	1304.524658	20465.931641	12226.694336	57.000877
428.652618	1305.406982	20213.738281	12096.463867	57.070377
429.010712	1308.604858	19949.083984	11947.263672	57.072887
429.368744	1307.502197	19655.095703	11803.687500	57.207424
429.726746	1309.266479	19377.318359	11627.802734	57.109287
430.084717	1308.163818	19099.431641	11483.786133	57.194473
430.442688	1307.060913	18835.882813	11336.021484	57.214119
430.800568	1309.376709	18608.390625	11214.500977	57.258316
431.158417	1306.840454	18434.820313	11112.608398	57.249992
431.516235	1306.068604	18281.431641	11017.664063	57.209942
431.874023	1311.692505	18144.582031	10935.401367	57.172058
432.231812	1313.567261	18015.671875	10858.761719	57.149647
432.589508	1312.574707	17917.308594	10820.829102	57.262306
432.947205	1313.015869	17823.136719	10762.935547	57.237133
433.304840	1313.015747	17743.410156	10715.298828	57.224937
433.662476	1316.213623	17696.322266	10680.232422	57.167011
434.020050	1314.890381	17657.066406	10662.478516	57.199165
434.377594	1312.795166	17623.541016	10642.739258	57.201210
434.735138	1308.825195	17599.613281	10641.304688	57.286850
435.092621	1308.935669	17586.931641	10617.595703	57.185543
435.450043	1307.612305	17582.742188	10602.708984	57.112274
435.807465	1309.707520	17606.451172	10618.588867	57.121109
436.164856	1308.053345	17642.402344	10623.771484	57.031460
436.522156	1303.973267	17711.433594	10649.795898	56.960808
436.879486	1305.737671	17791.822266	10685.745117	56.896519
437.236755	1306.840454	17887.759766	10743.638672	56.913597
437.593994	1306.730225	17994.613281	10788.960938	56.821053
437.951172	1304.635010	18134.107422	10869.790039	56.835739
438.308380	1308.053467	18255.406250	10936.614258	56.814537
438.665497	1306.840454	18378.800781	11004.431641	56.804199
439.022583	1309.266602	18541.562500	11097.613281	56.802334
439.379608	1306.399414	18692.748047	11179.435547	56.786144
439.736633	1303.973389	18803.460938	11241.187500	56.785740
440.093628	1303.311646	18901.603516	11283.310547	56.710045
440.450562	1302.098633	18996.988281	11329.185547	56.666565
440.807495	1300.003540	19074.402344	11386.416992	56.746861
441.164368	1297.687866	19164.937500	11435.489258	56.739574
441.521210	1294.820679	19226.908203	11469.452148	56.739807
441.878021	1295.813232	19294.947266	11499.226563	56.688354
442.234833	1294.820801	19409.521484	11550.501953	56.615242
442.591522	1293.056274	19506.119141	11603.873047	56.612206
442.948242	1294.379517	19605.806641	11669.044922	56.656780
443.304901	1289.748169	19723.906250	11723.299805	56.599014
443.661530	1290.961060	19876.414063	11799.387695	56.541138
444.018127	1295.372070	20038.294922	11888.266602	56.516773
444.374664	1293.717773	20193.007813	11971.632813	56.499031
444.731201	1294.710327	20324.121094	12029.415039	56.411129
445.087738	1294.159058	20459.091797	12098.335938	56.374714
445.444183	1294.048950	20529.777344	12134.835938	56.357559
445.800598	1288.535278	20607.960938	12177.401367	56.362267
446.156982	1294.710449	20632.111328	12186.774414	56.326416
446.513336	1294.379639	20623.511719	12189.862305	56.368191
446.869598	1296.143921	20639.279297	12207.726563	56.410625
447.225891	1296.254272	20655.710938	12215.114258	56.400654
447.582153	1298.569946	20644.904297	12210.262695	56.401859
447.938354	1298.900757	20658.910156	12228.567383	56.454865
448.294495	1300.113892	20673.464844	12228.126953	56.407444
448.650665	1300.775269	20647.441406	12213.460938	56.406025
449.006775	1304.304199	20650.308594	12214.342773	56.394276
449.362823	1304.634888	20653.947266	12228.898438	56.458149
449.718842	1306.068604	20646.886719	12228.458008	56.473255
450.074860	1303.201416	20633.435547	12237.388672	56.565208
450.430817	1299.121338	20615.460938	12222.612305	56.550522
450.786713	1303.091187	20522.720703	12178.283203	56.583778
451.142578	1302.429443	20414.103516	12132.519531	56.667408
451.498444	1299.672852	20259.611328	12054.667969	56.724846
451.854248	1298.790649	20091.447266	11958.510742	56.722794
452.210022	1296.364624	19887.664063	11855.294922	56.795013
452.565765	1297.687866	19641.093750	11735.758789	56.903671
452.921478	1298.790527	19413.382813	11595.273438	56.840820
453.277191	1300.665039	19194.601563	11463.386719	56.794216
453.632813	1293.717896	19016.619141	11361.606445	56.807228
453.988434	1291.953491	18836.214844	11249.458984	56.756481
454.343964	1291.512451	18654.484375	11152.419922	56.792736
454.699524	1291.512451	18502.417969	11069.052734	56.810139
455.054993	1289.858398	18362.921875	10995.721680	56.848988
455.410400	1292.946045	18256.728516	10939.041992	56.862881
455.765839	1292.505005	18209.533203	10908.275391	56.840782
456.121216	1291.843384	18214.494141	10908.054688	56.824497
456.476593	1290.850952	18258.162109	10930.992188	56.815968
456.831909	1292.505005	18381.447266	11003.992188	56.829075
457.187195	1290.299438	18541.011719	11084.490234	56.775570
457.542450	1292.725586	18748.433594	11193.661133	56.720337
457.897644	1294.049072	18936.558594	11303.933594	56.737305
458.252808	1294.710571	19188.201172	11449.934570	56.753735
458.607971	1291.733398	19381.619141	11563.184570	56.780075
458.963013	1290.079224	19505.677734	11631.664063	56.773239
459.318085	1288.755859	19596.982422	11674.560547	56.727531
459.673096	1285.116821	19666.013672	11703.781250	56.682022
460.028076	1286.440063	19745.630859	11735.760742	56.607681
460.383057	1284.786133	19806.941406	11782.958008	56.678993
460.737976	1287.983887	19834.839844	11803.467773	56.696857
461.092865	1292.725586	19855.791016	11813.391602	56.675259
461.447723	1296.916016	19856.453125	11812.730469	56.659897
461.802551	1298.239258	19856.453125	11792.550781	56.548065
462.157288	1297.467407	19858.546875	11784.059570	56.497746
462.512054	1300.224121	19875.419922	11771.708984	56.373482
462.866760	1298.349487	19855.460938	11752.521484	56.335125
463.221405	1300.224121	19807.162109	11729.916016	56.355576
463.576019	1303.091187	19712.216797	11690.989258	56.427986
463.930603	1302.539917	19614.736328	11626.260742	56.376198
464.285156	1299.121338	19475.904297	11523.707031	56.250801
464.639709	1298.128906	19264.953125	11421.484375	56.344711
464.994171	1297.908203	19023.126953	11271.843750	56.269745
465.348633	1296.584961	18747.886719	11115.257813	56.263271
465.703033	1295.923462	18464.816406	10943.894531	56.194485
466.057434	1298.790649	18214.716797	10797.010742	56.149570
466.411774	1299.562622	18037.949219	10692.363281	56.115330
466.766083	1301.106445	17885.222656	10616.715820	56.171875
467.120331	1305.737793	17779.470703	10562.020508	56.188137
467.474548	1301.106445	17689.046875	10509.861328	56.192261
467.828735	1303.752930	17619.908203	10464.649414	56.146172
468.182922	1304.083740	17569.181641	10430.904297	56.112915
468.537048	1303.752808	17523.308594	10395.948242	56.056995
468.891144	1301.878296	17492.320313	10380.840820	56.076065
469.245178	1301.878174	17462.218750	10374.223633	56.139568
469.599213	1302.539917	17443.248047	10355.809570	56.089668
469.953186	1298.680298	17429.464844	10354.596680	56.140583
470.307129	1296.805664	17448.871094	10362.095703	56.124649
470.661041	1296.364624	17470.375000	10364.080078	56.063496
471.014923	1294.159180	17540.398438	10389.443359	55.983936
471.368713	1291.402344	17554.513672	10392.199219	55.959751
471.722504	1291.733154	17527.056641	10398.486328	56.092216
472.076294	1294.159180	17506.875000	10375.107422	56.011272
472.429993	1294.820679	17450.636719	10351.067383	56.055645
472.783722	1298.680298	17445.673828	10335.960938	55.968811
473.137329	1298.900757	17468.169922	10338.166016	55.903984
473.490967	1297.136353	17501.912109	10348.752930	55.857708
473.844543	1299.893188	17586.824219	10389.111328	55.806820
474.198090	1304.304077	17671.072266	10431.567383	55.767048
474.551605	1302.319214	17800.201172	10502.140625	55.763649
474.905060	1308.384155	17940.027344	10577.788086	55.733547
475.258484	1308.935547	18086.910156	10660.491211	55.737095
475.611877	1306.178711	18251.660156	10753.892578	55.753590
475.965240	1308.273926	18447.281250	10860.746094	55.735271
476.318573	1309.266235	18634.302734	10970.247070	55.763115
476.671844	1309.597168	18851.650391	11091.437500	55.762230
477.025116	1311.912964	19080.025391	11220.676758	55.767113
477.378326	1311.582275	19312.589844	11353.996094	55.788067
477.731506	1315.882690	19547.250000	11484.558594	55.775719
478.084656	1316.323975	19827.232422	11645.666992	55.801384
478.437744	1317.867554	20118.792969	11801.702148	55.762333
478.790833	1320.844971	20460.417969	12001.408203	55.803566
479.143890	1321.506836	20876.585938	12214.674805	55.705059
479.496826	1319.191040	21361.125000	12488.701172	55.730698
479.849823	1318.308838	22011.734375	12835.949219	55.658451
480.202728	1315.441650	22825.765625	13271.858398	55.584549
480.555603	1315.110840	23823.623047	13828.513672	55.594090
480.908478	1315.441772	25161.562500	14586.858398	55.654408
481.261292	1316.985596	26807.597656	15568.173828	55.907597
481.614075	1312.574707	28644.851563	16731.109375	56.411453
481.966797	1312.464355	30482.433594	17946.753906	57.025391
482.319489	1309.045898	32214.595703	19040.546875	57.373188
482.672150	1305.296631	33764.917969	19964.740234	57.485092
483.024780	1306.730103	35107.265625	20727.056641	57.455677
483.377350	1302.870605	36224.988281	21366.634766	57.452885
483.729919	1298.018677	37244.351563	21941.046875	57.427353
484.082428	1299.011108	38192.691406	22462.636719	57.363823
484.434937	1295.702881	39178.636719	23027.232422	57.364960
484.787384	1295.151489	40234.167969	23623.587891	57.342064
485.139771	1292.725586	41388.390625	24293.050781	57.363621
485.492157	1292.835815	42569.632813	24956.892578	57.330166
485.844482	1293.387207	43648.093750	25582.800781	57.347614
486.196777	1294.710449	44636.695313	26142.982422	57.330719
486.549072	1296.033813	45404.960938	26590.910156	57.346390
486.901276	1296.695313	45975.839844	26901.328125	57.307796
487.253448	1298.239258	46288.355469	27093.203125	57.334736
487.605591	1302.208984	46303.132813	27123.750000	57.380028
487.957703	1299.672607	46083.031250	27014.691406	57.420925
488.309784	1299.562378	45554.933594	26712.101563	57.422497
488.661835	1296.033691	44797.800781	26231.421875	57.320408
489.013855	1298.349365	44004.054688	25636.500000	56.990395
489.365814	1299.231567	43266.445313	25042.130859	56.574871
489.717743	1303.532349	42634.578125	24566.964844	56.285610
490.069611	1305.186401	42050.355469	24197.001953	56.182899
490.421509	1304.965820	41502.742188	23901.693359	56.213871
490.773315	1302.981079	41014.894531	23621.601563	56.201324
491.125092	1306.619995	40491.542969	23317.800781	56.172581
491.476807	1304.524780	39882.945313	22966.691406	56.150990
491.828522	1307.612305	39140.375000	22538.394531	56.117451
492.180176	1309.707520	38236.800781	22028.603516	56.107574
492.531830	1309.156128	37205.195313	21421.111328	56.028339
492.883423	1306.178711	36045.132813	20760.580078	56.001694
493.234985	1304.745239	34956.851563	20145.259766	55.986137
493.586487	1304.965698	33935.281250	19559.601563	55.943794
493.937988	1305.296509	33071.078125	19065.140625	55.908726
494.289429	1307.391846	32372.283203	18664.078125	55.872353
494.640869	1306.950562	31790.261719	18333.371094	55.854893
494.992218	1303.752808	31337.705078	18058.021484	55.784431
495.343567	1308.053345	30892.642578	17801.306641	55.749477
495.694855	1309.266479	30385.390625	17511.289063	55.722771
496.046112	1310.589722	29761.578125	17158.746094	55.703358
496.397339	1310.479492	28948.871094	16713.574219	55.730793
496.748535	1314.008179	28032.728516	16194.520508	55.693207
497.099670	1311.030884	27087.691406	15652.310547	55.636684
497.450806	1309.817871	26246.529297	15149.135742	55.497768
497.801880	1306.840576	25569.789063	14731.536133	55.330021
498.152924	1311.582275	24976.521484	14417.258789	55.380142
498.503937	1313.897827	24514.037109	14165.175781	55.393108
498.854889	1314.449219	24176.052734	13983.226563	55.415085
499.205841	1312.243774	23892.431641	13826.860352	55.422997
499.556702	1311.140991	23686.552734	13700.156250	55.368881
499.907562	1307.943115	23485.634766	13591.648438	55.387665
500.258362	1310.148560	23315.595703	13516.000000	55.467411
500.609161	1309.707520	23158.457031	13399.553711	55.334267
500.959900	1308.494507	22990.400391	13308.136719	55.344040
501.310608	1307.171265	22819.037109	13215.176758	55.355526
501.661255	1307.171265	22611.285156	13110.198242	55.402576
502.011902	1309.266602	22391.291016	12996.507813	55.437000
502.362488	1311.913086	22170.857422	12885.573242	55.485355
502.713043	1309.487061	21960.457031	12762.619141	55.460503
503.063568	1309.817871	21776.964844	12664.696289	55.478565
503.414063	1310.369263	21571.416016	12562.584961	55.536201
503.764496	1309.487061	21409.425781	12466.317383	55.506786
504.114899	1307.722656	21250.632813	12376.553711	55.502586
504.465271	1306.950684	21128.449219	12324.835938	55.585529
504.815613	1310.699951	21029.423828	12273.227539	55.594505
505.165894	1314.559570	20931.613281	12234.191406	55.663971
505.516174	1314.890381	20892.464844	12183.576172	55.515999
505.866394	1313.125977	20881.437500	12160.088867	55.431263
506.216583	1311.802856	20873.714844	12155.567383	55.433052
506.566711	1311.802734	20907.458984	12166.595703	55.393871
506.916840	1310.810303	20949.033203	12181.703125	55.355785
507.266907	1311.251343	21002.847656	12208.830078	55.341270
507.616882	1312.464355	21083.457031	12219.746094	55.168102
507.966858	1310.589966	21133.298828	12259.445313	55.233902
508.316803	1311.251587	21188.214844	12293.409180	55.250679
508.666748	1311.030884	21251.291016	12316.345703	55.191429
509.016632	1309.707642	21313.376953	12348.764648	55.185158
509.366486	1309.046021	21402.917969	12384.383789	55.117989
509.716309	1306.840454	21490.474609	12430.477539	55.112160
510.066040	1308.715088	21588.066406	12483.959961	55.106522
510.415771	1308.935669	21689.849609	12534.354492	55.078094
510.765503	1303.863037	21797.253906	12577.471680	55.010948
511.115173	1302.870483	21897.271484	12627.976563	54.991192
511.464752	1302.650024	21996.625000	12686.971680	55.012733
511.814270	1304.965820	22078.666016	12724.022461	54.968815
512.163818	1302.980835	22163.134766	12783.681641	55.036510
512.513306	1300.444580	22225.990234	12817.755859	55.039482
512.862793	1297.797974	22280.796875	12853.373047	55.071136
513.212219	1294.931030	22320.494141	12867.818359	55.041988
513.561646	1295.482178	22372.982422	12893.622070	55.026165
513.911011	1294.710449	22402.203125	12922.735352	55.089565
514.260315	1298.128906	22437.380859	12948.758789	55.113728
514.609558	1299.893188	22506.414063	12989.337891	55.121933
514.958801	1300.665283	22600.585938	13067.412109	55.243153
515.308044	1304.193970	22745.705078	13145.925781	55.228062
515.657227	1303.311890	22949.488281	13238.445313	55.137379
516.006348	1307.171387	23197.712891	13366.031250	55.087078
516.355408	1308.935669	23468.322266	13500.454102	55.017399
516.704529	1306.950684	23702.210938	13632.337891	55.035694
517.053467	1310.810181	23927.384766	13745.699219	54.981308
517.402466	1309.817627	24100.404297	13838.658203	54.973755
517.751404	1310.589600	24227.660156	13911.661133	54.985523
518.100281	1315.882813	24354.253906	13985.761719	54.994682
518.449219	1316.764893	24445.224609	14029.320313	54.964993
518.798035	1314.228638	24541.933594	14072.326172	54.926208
519.146851	1311.471924	24637.761719	14111.142578	54.872299
519.495544	1311.582275	24703.267578	14152.051758	54.893307
519.844299	1311.582031	24792.478516	14190.426758	54.848183
520.192932	1310.589600	24892.824219	14226.042969	54.767723
520.541626	1311.912964	24987.878906	14285.923828	54.798229
520.890198	1313.236084	25089.660156	14335.326172	54.768917
521.238770	1315.993042	25211.404297	14394.763672	54.733395
521.587280	1313.897827	25350.234375	14462.141602	54.701534
521.935791	1315.000488	25468.556641	14521.025391	54.675282
522.284180	1312.905273	25587.652344	14566.568359	54.598564
522.632629	1310.810181	25735.308594	14632.620117	54.542820
522.981018	1313.346436	25881.085938	14713.449219	54.543488
523.329346	1309.376709	26049.583984	14813.687500	54.584469
523.677551	1312.795288	26239.253906	14929.252930	54.626522
524.025818	1310.810303	26502.146484	15055.846680	54.562553
524.374023	1305.848267	26813.333984	15218.718750	54.544262
524.722229	1304.304443	27208.441406	15432.096680	54.538750
525.070374	1302.760376	27733.115234	15702.264648	54.480930
525.418457	1301.878174	28432.574219	16087.666992	54.498379
525.766541	1303.532227	29419.845703	16637.486328	54.537571
526.114563	1305.406860	30673.535156	17336.396484	54.586349
526.462585	1304.414429	32059.880859	18161.455078	54.809902
526.810547	1302.319214	33429.792969	18945.052734	54.914787
527.158447	1303.311523	34649.191406	19649.035156	55.016460
527.506348	1306.509521	35670.535156	20234.248047	55.080093
527.854065	1305.406860	36507.835938	20702.685547	55.102104
528.201904	1305.296631	37179.289063	21081.251953	55.126163
528.549622	1304.965820	37700.105469	21350.205078	55.076687
528.897339	1304.965820	38087.820313	21560.716797	55.068455
529.245056	1305.848022	38392.945313	21710.466797	55.018108
529.592712	1304.965942	38621.097656	21842.681641	55.037094
529.940369	1302.209106	38808.785156	21952.072266	55.056648
530.287903	1298.239258	39002.093750	22061.353516	55.068939
530.635437	1300.003662	39242.042969	22180.888672	55.033638
530.982910	1296.254272	39534.929688	22344.421875	55.044186
531.330383	1298.349487	39778.742188	22485.791016	55.060352
531.677795	1296.364624	39893.535156	22580.957031	55.145470
532.025208	1296.805664	39896.734375	22580.185547	55.138390
532.372498	1296.144043	39700.453125	22476.199219	55.150204
532.719788	1294.379639	39259.023438	22222.130859	55.124321
533.067078	1295.261841	38522.738281	21815.996094	55.122551
533.414307	1297.577637	37499.183594	21233.427734	55.068966
533.761536	1299.782959	36364.812500	20545.546875	54.885918
534.108643	1298.790649	35301.566406	19900.894531	54.707600
534.455811	1298.349487	34402.292969	19372.027344	54.596748
534.802856	1298.459717	33658.390625	18946.044922	54.535301
535.149902	1300.996094	33076.042969	18615.667969	54.491413
535.496887	1300.665161	32572.203125	18324.548828	54.438908
535.843811	1298.790527	32153.277344	18104.554688	54.467812
536.190796	1300.113892	31807.683594	17907.277344	54.436207
536.537659	1300.885742	31473.228516	17747.712891	54.509613
536.884460	1301.216553	31187.402344	17591.126953	54.506489
537.231323	1303.973267	30885.589844	17441.265625	54.551758
537.578064	1306.950806	30573.738281	17256.777344	54.498043
537.924805	1308.274048	30209.177734	17066.667969	54.525608
538.271423	1307.502197	29892.691406	16849.208984	54.369789
538.618164	1308.935547	29722.433594	16742.687500	54.318382
538.964783	1312.795288	29751.984375	16750.515625	54.283264
539.311279	1312.354126	29938.345703	16857.480469	54.304234
539.657776	1313.787720	30217.447266	17016.824219	54.328884
540.004333	1312.023193	30474.714844	17155.658203	54.328438
540.350769	1311.030762	30722.937500	17283.683594	54.306755
540.697144	1310.920410	30910.619141	17391.087891	54.325443
541.043518	1307.501953	31016.039063	17452.728516	54.345409
541.389893	1307.832764	30991.449219	17453.390625	54.392151
541.736145	1312.243652	30870.919922	17392.412109	54.400841
542.082458	1311.030762	30728.115234	17312.353516	54.394657
542.428711	1313.677490	30558.958984	17217.628906	54.381256
542.774902	1311.030884	30414.613281	17140.550781	54.390278
543.121033	1314.559570	30309.851563	17072.513672	54.346592
543.467102	1315.772705	30228.580078	17035.683594	54.370064
543.813171	1314.449341	30173.115234	16983.083984	54.294384
544.159180	1314.118530	30124.265625	16946.365234	54.259518
544.505127	1316.103394	30064.390625	16896.521484	54.195988
544.851135	1315.882813	29946.505859	16834.214844	54.201866
545.197021	1314.228760	29733.347656	16710.710938	54.176495
545.542908	1312.574585	29327.765625	16518.835938	54.278629
545.888733	1313.125977	28734.279297	16197.279297	54.279823
546.234558	1312.574585	27955.421875	15756.519531	54.213219
546.580322	1314.449219	27086.472656	15258.636719	54.105907
546.926025	1314.449219	26190.398438	14749.730469	54.009121
547.271667	1315.331421	25366.664063	14290.556641	53.948055
547.617371	1312.464233	24569.062500	13865.455078	53.976044
547.962952	1309.376709	23836.634766	13470.679688	53.984833
548.308533	1316.875244	23176.984375	13105.345703	53.926861
548.654053	1318.749878	22597.058594	12781.254883	53.869434
548.999573	1316.985596	22105.242188	12495.757813	53.774460
549.344971	1317.426514	21676.394531	12263.745117	53.766567
549.690430	1313.456787	21303.451172	12054.778320	53.733490
550.035767	1313.897827	20995.458984	11888.816406	53.730083
550.381104	1314.338867	20720.439453	11736.200195	53.704044
550.726440	1308.715088	20440.898438	11582.370117	53.698288
551.071655	1308.053345	20193.007813	11438.794922	53.644508
551.416931	1305.737671	19905.525391	11285.737305	53.656528
551.762085	1305.958130	19601.064453	11122.093750	53.654438
552.107178	1303.752686	19293.402344	10957.236328	53.661316
552.452332	1302.539795	18985.742188	10780.798828	53.600349
552.797424	1304.304077	18713.041016	10631.931641	53.580154
553.142395	1299.011108	18451.914063	10498.722656	53.633560
553.487366	1300.113770	18255.408203	10396.057617	53.646626
553.832336	1301.106323	18065.296875	10307.178711	53.722080
554.177185	1299.782959	17916.652344	10231.861328	53.753075
554.522095	1301.326782	17807.810547	10170.219727	53.729748
554.866943	1304.745361	17704.042969	10103.835938	53.655293
555.211731	1306.068604	17624.757813	10051.236328	53.589893
555.556396	1300.885742	17547.566406	10012.200195	53.619041
555.901123	1302.760376	17476.771484	9971.067383	53.594044
556.245789	1303.201538	17389.656250	9930.928711	53.633492
556.590454	1305.406860	17291.294922	9878.769531	53.630817
556.934998	1303.642700	17206.494141	9823.523438	53.574547
557.279541	1307.722656	17093.353516	9751.184570	53.488277
557.624023	1306.620117	16953.750000	9670.574219	53.453598
557.968567	1311.361694	16822.525391	9593.383789	53.393944
558.312988	1313.567017	16687.994141	9539.020508	53.500877
558.657349	1316.213745	16581.359375	9479.363281	53.475739
559.001770	1315.000732	16496.228516	9420.256836	53.389992
559.346069	1317.757568	16420.470703	9382.212891	53.397392
559.690308	1318.970459	16366.767578	9356.408203	53.412720
560.034485	1318.529541	16310.417969	9332.148438	53.453033
560.378723	1321.727173	16279.982422	9312.299805	53.419151
560.722900	1318.970459	16237.306641	9284.179688	53.392075
561.067017	1315.662354	16214.701172	9265.875000	53.360577
561.411072	1315.110962	16186.361328	9255.729492	53.395771
561.755127	1317.206055	16158.242188	9247.901367	53.437611
562.099182	1316.213745	16149.860352	9242.716797	53.435970
562.443115	1316.103394	16154.382813	9247.349609	53.451252
562.787048	1318.198486	16166.845703	9245.695313	53.388680
563.130920	1317.536865	16204.117188	9264.441406	53.383007
563.474792	1314.559570	16275.242188	9296.971680	53.355934
563.818604	1309.817749	16366.658203	9345.270508	53.367455
564.162354	1314.890259	16455.423828	9408.457031	53.456287
564.506042	1312.133545	16567.021484	9468.225586	53.465435
564.849731	1311.582153	16664.722656	9523.913086	53.489586
565.193420	1309.376709	16735.189453	9559.641602	53.483501
565.537048	1304.304077	16789.001953	9584.895508	53.475964
565.880615	1304.965820	16818.666016	9603.088867	53.488998
566.224121	1303.201416	16827.597656	9616.763672	53.551598
566.567627	1303.642578	16828.146484	9620.623047	53.573246
566.911072	1306.509766	16823.736328	9636.280273	53.680794
567.254517	1305.848022	16856.265625	9643.668945	53.617989
567.597839	1307.612305	16881.408203	9658.995117	53.624580
567.941223	1305.847900	16914.271484	9684.138672	53.678009
568.284485	1305.186401	16938.753906	9706.192383	53.736973
568.627808	1306.289063	17000.615234	9734.532227	53.702484
568.970947	1304.855591	17070.197266	9777.649414	53.743168
569.314148	1310.589600	17146.837891	9818.891602	53.726753
569.657288	1314.449341	17232.078125	9861.126953	53.693157
570.000366	1315.772461	17313.900391	9915.160156	53.752460
570.343445	1316.213745	17378.958984	9949.895508	53.749725
570.686462	1319.301392	17399.359375	9959.048828	53.729576
571.029419	1319.521851	17410.937500	9947.911133	53.621071
571.372314	1314.559570	17389.546875	9913.174805	53.490650
571.715210	1314.780029	17336.173828	9884.614258	53.489941
572.058105	1315.441650	17284.566406	9864.986328	53.537968
572.400879	1318.308716	17266.921875	9860.904297	53.563251
572.743713	1316.985474	17250.712891	9845.688477	53.526100
573.086426	1315.882813	17256.779297	9847.783203	53.522087
573.429077	1315.993042	17280.599609	9849.437500	53.452271
573.771790	1313.456787	17288.978516	9851.533203	53.444740
574.114441	1308.825317	17280.158203	9842.491211	53.431145
574.457031	1309.376709	17246.634766	9823.414063	53.422222
574.799561	1306.399414	17192.378906	9784.927734	53.371140
575.142029	1312.684937	17144.080078	9745.120117	53.264008
575.484436	1316.103271	17057.294922	9693.180664	53.217556
575.826904	1311.471802	16940.076172	9626.685547	53.205093
576.169250	1314.890381	16794.847656	9542.108398	53.147549
576.511597	1309.266357	16627.013672	9459.182617	53.205711
576.853943	1303.863037	16422.126953	9352.439453	53.237438
577.196167	1302.980835	16207.315430	9230.807617	53.191414
577.538391	1300.885742	15981.145508	9106.972656	53.174038
577.880554	1295.923462	15774.605469	9001.993164	53.223560
578.222717	1297.798096	15546.340820	8889.294922	53.279110
578.564819	1298.459717	15335.276367	8791.261719	53.379639
578.906860	1297.798096	15149.357422	8691.354492	53.377071
579.248901	1294.489990	14957.482422	8577.113281	53.301815
579.590942	1292.505005	14756.014648	8467.060547	53.288895
579.932861	1296.474854	14573.073242	8362.411133	53.220985
580.274780	1295.813232	14376.127930	8246.625000	53.139484
580.616638	1297.577515	14177.304688	8144.071289	53.157131
580.958496	1300.665161	13971.095703	8032.917480	53.133572
581.300232	1301.988525	13802.267578	7934.332520	53.057564
581.641968	1302.760376	13638.404297	7848.541016	53.063957
581.983704	1300.885620	13495.599609	7776.864746	53.104805
582.325317	1296.915771	13360.736328	7702.319824	53.095985
582.666992	1296.474731	13243.408203	7634.171875	53.048737
583.008606	1298.018555	13132.584961	7587.967285	53.148956
583.350098	1295.482300	13037.419922	7537.572266	53.160645
583.691589	1294.710449	12956.919922	7486.185059	53.090069
584.033081	1295.813232	12896.602539	7440.312500	52.966217
584.374512	1293.276978	12835.179688	7405.465820	52.956512
584.715881	1293.607666	12787.429688	7374.479980	52.905567
585.057190	1291.512451	12741.335938	7345.367676	52.872917
585.398499	1289.086548	12694.800781	7321.769531	52.891762
585.739807	1291.071655	12657.087891	7304.787109	52.909611
586.081055	1291.622803	12628.416992	7292.657227	52.934139
586.422180	1291.622803	12602.281250	7289.790039	53.031105
586.763367	1289.637939	12593.017578	7278.873535	52.986233
587.104431	1289.196777	12593.017578	7276.116699	52.963688
587.445496	1290.189331	12597.098633	7270.603516	52.891678
587.786499	1287.211914	12592.797852	7272.146484	52.937855
588.127502	1283.021484	12621.468750	7278.873535	52.880714
588.468445	1284.234619	12627.754883	7271.925781	52.785126
588.809326	1284.124390	12634.040039	7273.139160	52.767040
589.150208	1287.322266	12639.332031	7271.153809	52.711651
589.491028	1290.740723	12626.099609	7267.735840	52.728767
589.831848	1290.299683	12624.998047	7275.014160	52.799946
590.172546	1291.291992	12613.971680	7257.920898	52.696262
590.513245	1289.307251	12605.810547	7249.981445	52.672405
590.853943	1289.307251	12610.994141	7241.490234	52.573292
591.194458	1290.189331	12623.235352	7251.965820	52.605244
591.535095	1288.645508	12624.227539	7251.746094	52.605156
591.875610	1289.527588	12644.406250	7263.545410	52.611900
592.216125	1291.622803	12648.376953	7270.051270	52.642056
592.556580	1291.071411	12667.343750	7288.576660	52.719425
592.897034	1287.763184	12700.867188	7298.611816	52.666206
593.237366	1287.652954	12718.510742	7301.258789	52.608528
593.577698	1288.535156	12771.110352	7314.160645	52.476257
593.918030	1289.307007	12819.409180	7344.155273	52.513393
594.258301	1292.284302	12873.332031	7377.125977	52.541374
594.598511	1292.063843	12952.838867	7431.379395	52.649288
594.938721	1294.379639	13037.417969	7466.997559	52.564064
595.278809	1299.231567	13118.026367	7502.837891	52.489330
595.618958	1298.790527	13172.391602	7548.710449	52.637104
595.958984	1299.011108	13228.298828	7570.875977	52.575348
596.299011	1302.098633	13252.007813	7590.282715	52.621189
596.638977	1299.011108	13278.141602	7603.294434	52.627216
596.978943	1297.908447	13289.832031	7589.069336	52.461651
597.318848	1300.665161	13285.533203	7585.650879	52.441010
597.658630	1300.113770	13271.526367	7574.514160	52.411530
597.998474	1298.128662	13238.885742	7565.029785	52.483284
598.338257	1297.356934	13184.189453	7533.381836	52.461620
598.677979	1298.680298	13151.439453	7516.620605	52.459858
599.017700	1297.026245	13096.192383	7483.869141	52.434578
599.357361	1300.444580	13052.415039	7456.302246	52.381489
599.696960	1305.737671	13013.156250	7422.558594	52.247391
600.036560	1307.171265	12965.298828	7392.342773	52.196815
600.376038	1303.973389	12926.591797	7381.537109	52.290829
600.715576	1303.422119	12884.029297	7369.075684	52.377678
601.055054	1302.870850	12840.801758	7353.857910	52.444302
601.394409	1301.878174	12806.395508	7339.302246	52.478722
601.733826	1303.752930	12760.414063	7312.285645	52.445759
602.073120	1301.878296	12756.113281	7303.904785	52.400063
602.412415	1297.577515	12743.873047	7306.000000	52.492287
602.751587	1296.915894	12771.220703	7314.160156	52.441036
603.090820	1298.459839	12801.544922	7332.134766	52.452667
603.429993	1293.166748	12848.080078	7347.461914	52.395851
603.769104	1292.063965	12883.807617	7357.166504	52.322605
604.108154	1293.828369	12909.392578	7379.221191	52.389984
604.447205	1296.144165	12946.553711	7396.423340	52.361073
604.786194	1298.349487	12976.877930	7410.869629	52.339813
605.125183	1302.319336	13007.534180	7419.139648	52.257225
605.464111	1300.665039	13028.486328	7437.996094	52.331383
605.802979	1299.562378	13050.870117	7443.510254	52.283100
606.141846	1300.113770	13074.911133	7465.895020	52.364227
606.480652	1297.908325	13114.829102	7485.192871	52.359535
606.819336	1295.702881	13167.648438	7514.855469	52.385284
607.158020	1295.261719	13228.960938	7558.633789	52.484749
607.496765	1300.003296	13292.807617	7583.005371	52.389763
607.835388	1301.216431	13331.182617	7608.808594	52.432339
608.173950	1305.076050	13348.386719	7615.755859	52.399876
608.512512	1303.201416	13325.559570	7601.419434	52.387539
608.851013	1301.216431	13280.789063	7577.931641	52.395153
609.189514	1304.965820	13184.080078	7541.211426	52.497562
609.527893	1305.186279	13073.698242	7474.055176	52.418430
609.866333	1304.414673	12945.449219	7395.981934	52.328403
610.204712	1303.091309	12806.505859	7319.894531	52.304501
610.542969	1304.304321	12678.920898	7247.444824	52.249153
610.881226	1305.627563	12564.238281	7186.354980	52.233158
611.219482	1303.532349	12470.395508	7138.936523	52.256432
611.557678	1301.547363	12383.722656	7098.466309	52.308491
611.895813	1299.011108	12310.279297	7069.134766	52.401989
612.233948	1298.018555	12237.611328	7037.265625	52.463078
612.571960	1302.098633	12167.256836	7004.183594	52.480461
612.910034	1306.619873	12098.998047	6965.699219	52.435886
613.247986	1306.730103	12027.210938	6913.209961	52.296909
613.585938	1308.935547	11942.411133	6876.268066	52.356659
613.923828	1305.737671	11822.654297	6818.485840	52.417912
614.261658	1308.715088	11693.414063	6737.545410	52.277203
614.599487	1306.730103	11548.295898	6669.286621	52.360714
614.937317	1307.943115	11424.239258	6585.920410	52.173023
615.275024	1307.612305	11309.556641	6508.729004	52.001057
615.612732	1306.399414	11213.178711	6447.858398	51.898392
615.950378	1305.627441	11119.227539	6394.486816	51.855175
616.288025	1302.429443	11032.443359	6349.385254	51.869980
616.625549	1303.421997	10971.901367	6321.155273	51.897854
616.963074	1304.414307	10919.523438	6289.728516	51.848755
617.300537	1305.517212	10871.445313	6263.042480	51.824825
617.638000	1305.296631	10823.035156	6243.855469	51.887943
617.975464	1309.266357	10790.614258	6227.755371	51.875423
618.312744	1310.369141	10753.563477	6205.700684	51.839783
618.650024	1309.486938	10720.259766	6184.748047	51.805111
618.987305	1308.274048	10683.428711	6156.077148	51.709049
619.324585	1305.958374	10658.507813	6135.676758	51.640659
619.661743	1302.429565	10644.723633	6119.907227	51.566322
619.998901	1299.783081	10616.824219	6111.305664	51.642174
620.336060	1298.018799	10589.255859	6104.689941	51.733379
620.673096	1295.151611	10567.752930	6078.555176	51.586422
621.010193	1298.459717	10548.125000	6057.382813	51.449677
621.347168	1296.254272	10527.833984	6042.937012	51.417877
621.684082	1297.908447	10493.208984	6027.388672	51.433666
622.020996	1297.356934	10457.591797	6019.890625	51.554726
622.357849	1298.128906	10433.993164	6022.316406	51.710350
622.694641	1299.562500	10412.929688	6012.171875	51.710957
623.031433	1303.863037	10391.095703	6001.916504	51.699501
623.368164	1305.296631	10386.905273	6000.372559	51.698730
623.704895	1306.619873	10376.759766	5998.057129	51.723984
624.041504	1307.832886	10383.927734	6005.004395	51.753220
624.378174	1305.737671	10402.343750	6017.575684	51.797756
624.714783	1311.692505	10445.901367	6030.145996	51.656948
625.051331	1308.715210	10478.101563	6051.869629	51.728153
625.387756	1309.156250	10514.711914	6070.616699	51.723770
625.724304	1309.486938	10534.119141	6077.453125	51.687336
626.060669	1310.589600	10552.314453	6088.480469	51.699123
626.397034	1310.369141	10560.364258	6103.477539	51.817417
626.733337	1310.369141	10564.333984	6108.109375	51.845238
627.069641	1307.502075	10570.950195	6112.520508	51.870735
627.405884	1309.486938	10560.474609	6115.166504	51.947750
627.742126	1308.935669	10550.439453	6111.748047	51.970032
628.078308	1308.053467	10538.639648	6106.234375	51.981323
628.414429	1304.524780	10513.057617	6101.602539	52.093830
628.750488	1304.414551	10493.319336	6081.643066	51.989098
629.086548	1301.767944	10460.126953	6061.683594	51.973454
629.422546	1299.121338	10419.546875	6031.688965	51.889763
629.758545	1297.798096	10365.293945	6005.003418	51.912952
630.094421	1294.710571	10318.648438	5973.686523	51.850716
630.430298	1293.497437	10264.283203	5931.011230	51.695732
630.766113	1293.276855	10200.986328	5898.811523	51.702797
631.101929	1292.615479	10124.567383	5863.193359	51.750484
631.437622	1293.166626	10043.185547	5828.016602	51.826748
631.773376	1288.865967	9950.115234	5792.619141	51.998886
632.109070	1292.725586	9856.714844	5750.825684	52.056347
632.444641	1292.946167	9763.423828	5711.458496	52.163673
632.780273	1293.387329	9687.446289	5670.988281	52.151184
633.115784	1294.489990	9618.195313	5637.465820	52.175991
633.451294	1297.246826	9549.165039	5592.474121	52.051262
633.786682	1299.121338	9481.458008	5550.791016	51.961559
634.122131	1302.650146	9403.604492	5507.013184	51.899605
634.457458	1301.106323	9351.556641	5469.410156	51.777275
634.792847	1303.311768	9290.575195	5437.210449	51.756130
635.128113	1303.201538	9227.279297	5412.289063	51.855721
635.463318	1304.414429	9176.002930	5379.979004	51.775631
635.798584	1300.775513	9127.813477	5354.727051	51.794197
636.133728	1301.657715	9074.221680	5321.865723	51.723061
636.468872	1304.965820	9012.358398	5302.898926	51.871410
636.803955	1305.737793	8963.067383	5281.946777	51.926838
637.139038	1303.201416	8913.554688	5257.686523	51.961910
637.473999	1305.406860	8849.266602	5231.221191	52.039864
637.808899	1305.958374	8783.101563	5209.387207	52.204815
638.143799	1307.391846	8715.173828	5173.989746	52.196430
638.478638	1309.156128	8654.302734	5134.181641	52.075550
638.813538	1309.156006	8589.573242	5091.395996	51.950871
639.148315	1305.516968	8517.233398	5048.168945	51.896828
639.483032	1306.509521	8454.048828	5006.927246	51.771912
639.817749	1303.421875	8386.782227	4974.176270	51.822216
640.152405	1302.098633	8323.044922	4935.801270	51.755169
640.487000	1301.547363	8252.250000	4902.058105	51.800674
640.821594	1301.326782	8187.410156	4880.113770	51.971298
641.156128	1299.121338	8138.338379	4850.008789	51.919506
641.490662	1297.687744	8078.791504	4816.927246	51.897739
641.825134	1298.569946	8018.140625	4793.218262	52.007019
642.159546	1298.459717	7977.560059	4768.407227	51.952316
642.493896	1302.760376	7925.291016	4744.257324	51.966496
642.828186	1301.216553	7883.938477	4723.636719	51.990959
643.162537	1299.562622	7849.974609	4709.080566	52.050438
643.496765	1293.718140	7814.246094	4680.850586	51.945679
643.830994	1292.505005	7780.061523	4653.061523	51.800034
644.165100	1293.387329	7751.059570	4641.262695	51.843376
644.499268	1292.615479	7734.409180	4635.528809	51.894135
644.833313	1291.071655	7720.955566	4613.915527	51.678131
645.167358	1288.535278	7705.075684	4604.211426	51.673893
645.501343	1287.652954	7682.139648	4592.302246	51.679665
645.835327	1287.873535	7662.069824	4581.495117	51.671165
646.169189	1289.638062	7648.727539	4571.791504	51.613575
646.503052	1289.417358	7636.818359	4562.749023	51.569637
646.836914	1293.387207	7626.342285	4552.162598	51.457420
647.170654	1295.041260	7611.676270	4546.979980	51.482140
647.504395	1296.584961	7607.376465	4542.899414	51.440685
647.838074	1296.695435	7601.641602	4528.564941	51.259274
648.171753	1299.562500	7598.995605	4526.799805	51.230598
648.505371	1300.665283	7600.097656	4529.116211	51.249870
648.838928	1301.988525	7603.184570	4524.925781	51.148022
649.172424	1304.635010	7610.131836	4521.286621	51.013451
649.505920	1302.870728	7606.382324	4521.948242	51.068005
649.839294	1308.274048	7598.001465	4518.199219	51.034409
650.172729	1310.920532	7596.127441	4514.670410	50.972862
650.506104	1314.890381	7600.207520	4517.316895	50.950912
650.839355	1317.536987	7584.989746	4519.742676	51.092617
651.172668	1318.308838	7565.913086	4510.149414	51.089031
651.505859	1316.875244	7542.977051	4496.806152	51.074188
651.839111	1319.080688	7527.979980	4484.896973	50.988365
652.172241	1321.175903	7515.959961	4475.302734	50.915848
652.505371	1319.521729	7502.616211	4469.017578	50.937210
652.838379	1320.845093	7475.930176	4459.864746	50.998802
653.171387	1319.632202	7461.924805	4452.476074	51.004471
653.504333	1318.088379	7438.988281	4443.103027	51.054825
653.837280	1318.970459	7418.918945	4430.862793	51.015060
654.170227	1319.080811	7399.731934	4420.827637	51.010109
654.503052	1315.662354	7379.772461	4414.101563	51.094704
654.835876	1315.441895	7365.657715	4412.777832	51.193810
655.168579	1312.243896	7348.234375	4410.462402	51.329082
655.501343	1312.574707	7332.906250	4405.941406	51.382000
655.833984	1310.920532	7323.863770	4407.816406	51.503826
656.166626	1312.464233	7319.673340	4414.652832	51.641094
656.499268	1313.456787	7342.720215	4423.475098	51.582058
656.831787	1312.684937	7376.904785	4447.293945	51.690228
657.164307	1311.912964	7422.889160	4471.112793	51.697136
657.496765	1311.140991	7469.424316	4496.475586	51.724392
657.829224	1311.361572	7518.275391	4521.396973	51.717091
658.161621	1315.110718	7566.463379	4545.546387	51.675785
658.493958	1317.095703	7605.831055	4566.057129	51.663193
658.826233	1310.920410	7635.494629	4585.354980	51.773201
659.158508	1310.479370	7661.739746	4597.815918	51.758804
659.490723	1311.140991	7680.155273	4604.211914	51.704559
659.822876	1310.479492	7699.012695	4615.900391	51.739902
660.154968	1306.399414	7700.555664	4613.474121	51.720268
660.487061	1307.943115	7699.343750	4609.945801	51.663212
660.819153	1303.642700	7693.719727	4615.459473	51.827496
661.151123	1305.406982	7679.934570	4610.166504	51.843208
661.483093	1308.935791	7668.576660	4600.131836	51.751289
661.815002	1310.479614	7652.807129	4584.362793	51.619587
662.146851	1312.354126	7623.915039	4571.240234	51.633602
662.478760	1314.008057	7595.354980	4561.205078	51.695873
662.810486	1311.802612	7558.523926	4544.113281	51.744114
663.142212	1309.597168	7505.482910	4509.045898	51.638279
663.473938	1306.730103	7453.654785	4484.124512	51.690800
663.805603	1306.840332	7388.263184	4442.000000	51.553062
664.137207	1307.060913	7295.854980	4398.442871	51.619438
664.468689	1306.730103	7208.187500	4354.444336	51.643417
664.800293	1304.965820	7131.107910	4309.783691	51.574745
665.131775	1304.083496	7048.623535	4270.526367	51.639347
665.463196	1302.539795	6980.255859	4228.954102	51.542107
665.794617	1304.965820	6923.795410	4195.872070	51.450329
666.125916	1309.156250	6865.902344	4170.399414	51.491341
666.457275	1308.715210	6822.564941	4152.313965	51.571930
666.788574	1305.627563	6776.801270	4132.685547	51.671875
667.119812	1306.730225	6747.910645	4123.312012	51.764168
667.450928	1307.612305	6727.731445	4119.011719	51.869698
667.782104	1311.582153	6713.063965	4105.558594	51.726112
668.113159	1308.384155	6691.230469	4088.245850	51.642975
668.444214	1304.414307	6669.286621	4086.923096	51.865334
668.775208	1303.311523	6650.980469	4074.793213	51.825977
669.106201	1304.414307	6636.645996	4062.883545	51.731987
669.437134	1303.311646	6629.367676	4047.886230	51.531090
669.768005	1302.870605	6622.200195	4035.425537	51.370289
670.098877	1300.444702	6610.951660	4035.977051	51.511696
670.429688	1303.201416	6591.874023	4022.964355	51.426189
670.760437	1299.893311	6567.504395	4018.663574	51.612961
671.091187	1298.349487	6559.564941	4013.480957	51.606544
671.421814	1296.033813	6542.692871	3999.145752	51.520630
671.752441	1295.261963	6521.189941	3994.734863	51.655380
672.083008	1292.946167	6507.185059	3983.046143	51.591427
672.413574	1293.607788	6493.731934	3979.296387	51.646622
672.744080	1296.033813	6466.936035	3964.850830	51.612209
673.074524	1293.828369	6440.581055	3942.134766	51.455868
673.404968	1297.467407	6416.541504	3916.661865	51.165390
673.735352	1301.437256	6396.582520	3896.702393	50.936035
674.065613	1303.752930	6375.410156	3879.389404	50.784908
674.395935	1302.429688	6351.700684	3859.871338	50.649719
674.726196	1301.657837	6320.494141	3847.851563	50.732754
675.056335	1304.414551	6304.504395	3843.882080	50.788437
675.386536	1304.745361	6292.815430	3829.767090	50.621212
675.716614	1306.840454	6281.346680	3825.576904	50.632889
676.046692	1308.274048	6279.913086	3823.701904	50.595543
676.376770	1310.259033	6268.334961	3824.473877	50.709484
676.706726	1312.023315	6257.638184	3820.614258	50.723537
677.036621	1310.038452	6262.820801	3812.674561	50.529907
677.366516	1310.258911	6260.616211	3811.461426	50.525700
677.696411	1314.338989	6274.068359	3813.556641	50.390202
678.026184	1313.787720	6291.381836	3821.386230	50.377724
678.355957	1312.464355	6305.166016	3836.162842	50.547752
678.685669	1312.464355	6330.639160	3844.653564	50.460361
679.015320	1309.817749	6346.187500	3855.350342	50.543007
679.344971	1306.730103	6362.838379	3866.819092	50.633583
679.674561	1305.406860	6371.991211	3879.720215	50.809643
680.004150	1301.547241	6394.928711	3897.805176	50.973167
680.333618	1299.231689	6410.145996	3916.331055	51.206093
680.663086	1299.672729	6424.701660	3927.026855	51.265156
680.992493	1298.680298	6430.987305	3927.909668	51.228996
681.321899	1298.569824	6429.002930	3928.571533	51.262760
681.651184	1298.128784	6429.994629	3930.886963	51.302166
681.980530	1296.585083	6419.849609	3932.541748	51.450722
682.309753	1295.372070	6412.682129	3927.468750	51.435162
682.638977	1290.850952	6387.650391	3922.175537	51.627003
682.968079	1288.314697	6361.735840	3907.509277	51.625809
683.297241	1288.976318	6340.563965	3891.850342	51.525860
683.626343	1288.865845	6318.619629	3880.051025	51.517136
683.955383	1293.056396	6279.803711	3871.229248	51.700493
684.284363	1294.048950	6252.235352	3854.577637	51.642445
684.613281	1292.284546	6209.890137	3833.846436	51.682919
684.942139	1296.144043	6166.111816	3814.769287	51.717491
685.271057	1299.231567	6128.619629	3784.665527	51.464783
685.599792	1301.657593	6088.370117	3761.618652	51.391449
685.928589	1305.737671	6056.721191	3739.674561	51.230171
686.257324	1310.810181	6019.118164	3710.783203	50.973152
686.585999	1310.699951	5994.527344	3688.618408	50.768707
686.914612	1310.810303	5948.323242	3667.997070	50.828686
687.243164	1310.369141	5912.043457	3650.243408	50.848324
687.571777	1307.281494	5879.072754	3630.725098	50.821301
687.900269	1308.825317	5843.344727	3615.396973	50.866951
688.228699	1309.707520	5811.365234	3604.149170	50.968815
688.557129	1305.186401	5783.466309	3587.608643	50.966499
688.885498	1306.950806	5757.552246	3563.238525	50.696239
689.213867	1310.920532	5727.668457	3545.373779	50.590458
689.542114	1311.140991	5706.827148	3531.038574	50.501728
689.870361	1310.369141	5686.095703	3517.585449	50.442280
690.198608	1305.737671	5651.470215	3504.242676	50.589973
690.526794	1305.296631	5620.042969	3484.393555	50.503479
690.854858	1302.870605	5598.098633	3472.373535	50.509609
691.182922	1300.775513	5560.605957	3454.950439	50.569496
691.510986	1300.224121	5533.919922	3435.322266	50.431072
691.838928	1297.908447	5499.404785	3410.290283	50.276897
692.166931	1297.687866	5463.015137	3391.323242	50.263405
692.494812	1296.695557	5415.708496	3367.283936	50.269047
692.822632	1295.702881	5372.591309	3345.229492	50.271835
693.150452	1293.056396	5328.923828	3325.270020	50.353825
693.478149	1296.144043	5291.430664	3305.641846	50.296711
693.805908	1294.379639	5266.067871	3288.549561	50.209629
694.133606	1294.710449	5228.244141	3272.229248	50.273342
694.461243	1296.585083	5198.580078	3257.231689	50.247284
694.788818	1295.261841	5180.605957	3249.843750	50.306530
695.116333	1293.938477	5170.019531	3243.227295	50.290199
695.443848	1295.261719	5164.505371	3240.360596	50.270779
695.771301	1292.284302	5178.620605	3251.828613	50.421375
696.098755	1289.748047	5203.322266	3264.730713	50.464935
696.426147	1293.166626	5236.514160	3278.624268	50.349545
696.753418	1293.717896	5275.661133	3305.862305	50.531719
697.080688	1297.687744	5332.451660	3329.570313	50.359390
697.407898	1298.569946	5386.485352	3357.359375	50.362820
697.735107	1301.768066	5424.308594	3374.561768	50.279522
698.062317	1303.201660	5465.219727	3395.513428	50.271568
698.389404	1306.289307	5499.735352	3416.575928	50.323444
698.716492	1305.407104	5531.273438	3427.603027	50.219189
699.043457	1303.863281	5551.122559	3444.916016	50.410221
699.370483	1305.406982	5568.545410	3458.259033	50.499226
699.697388	1309.597412	5572.294434	3467.190430	50.615677
700.024292	1313.677490	5568.766113	3469.616699	50.667313
700.351135	1314.008423	5560.936523	3467.742188	50.712746
700.677917	1318.860352	5549.137695	3463.882813	50.706425
701.004639	1319.191162	5533.699219	3458.038330	50.749630
701.331299	1319.963013	5514.731934	3446.790283	50.701889
701.658020	1321.286133	5491.244629	3436.093750	50.715317
701.984619	1319.963013	5453.972168	3413.708252	50.646843
702.311218	1319.742432	5411.186523	3391.764160	50.642796
702.637756	1319.191040	5359.027344	3361.438965	50.552738
702.964233	1319.411621	5287.901855	3324.608643	50.527958
703.290649	1316.213867	5216.665527	3287.777588	50.547062
703.617065	1319.080933	5132.086914	3240.911377	50.401981
703.943481	1320.624756	5047.287109	3197.243408	50.356552
704.269775	1320.735107	4959.289551	3154.126953	50.387917
704.596008	1319.522095	4881.105957	3116.413330	50.452026
704.922241	1317.095947	4814.500977	3083.552246	50.507626
705.248474	1316.323975	4747.565430	3048.154785	50.472427
705.574585	1315.882935	4687.687500	3024.887207	50.685150
705.900696	1316.103271	4637.072266	2995.554688	50.571125
706.226746	1314.559570	4597.925781	2971.073975	50.451710
706.552734	1311.692505	4570.799316	2956.076904	50.455063
706.878723	1306.068604	4551.612305	2946.152588	50.533413
707.204651	1302.649902	4529.888672	2940.418457	50.748291
707.530518	1301.547363	4516.986328	2931.266113	50.684177
707.856323	1302.098633	4510.700684	2920.900391	50.451935
708.182068	1301.988403	4514.008789	2918.474365	50.326141
708.507813	1299.341797	4509.597656	2916.599609	50.377850
708.833496	1301.106201	4522.278809	2922.333740	50.330353
709.159180	1301.878052	4538.268066	2928.288574	50.253845
709.484802	1303.091187	4550.949219	2933.140381	50.188438
709.810303	1303.752563	4569.696289	2943.837158	50.217785
710.135864	1306.178711	4579.620117	2954.092285	50.341930
710.461304	1306.288818	4591.309570	2963.134766	50.436394
710.786743	1305.627319	4600.352051	2966.773438	50.418362
711.112122	1305.847900	4608.181152	2972.838623	50.479179
711.437500	1305.406860	4615.128418	2972.066895	50.356503
711.762817	1308.825195	4614.136230	2973.610596	50.366982
712.088013	1307.171143	4618.546875	2974.382324	50.347992
712.413269	1309.266357	4613.364258	2974.382324	50.395477
712.738403	1312.133423	4616.562012	2978.683105	50.433823
713.063538	1313.125977	4610.276855	2980.337158	50.565208
713.388611	1312.243652	4604.983398	2973.720703	50.458801
713.713623	1309.817749	4597.154297	2968.317383	50.451168
714.038574	1312.243652	4596.713379	2967.435303	50.394485
714.363525	1310.258789	4590.096680	2964.457764	50.435387
714.688477	1305.847900	4579.951660	2963.575684	50.631496
715.013306	1306.730103	4555.581543	2959.936768	50.885880
715.338135	1307.391724	4534.299316	2949.460693	50.886765
715.662842	1306.068604	4507.282227	2938.212891	50.985172
715.987549	1306.950684	4475.633789	2926.413818	51.108398
716.312195	1308.274048	4442.441406	2912.078369	51.171623
716.636841	1303.863037	4403.735840	2893.883545	51.293087
716.961426	1300.003540	4372.087891	2879.217285	51.405285
717.285950	1297.687744	4341.210938	2858.155029	51.271740
717.610474	1293.497437	4300.630371	2840.732178	51.452160
717.934937	1293.056396	4265.012695	2825.735107	51.571373
718.259277	1292.615234	4230.827637	2806.547607	51.525627
718.583679	1291.291992	4202.046875	2786.147217	51.356274
718.908020	1288.535156	4169.406738	2765.084961	51.253578
719.232239	1286.881104	4142.720703	2744.905029	51.054127
719.556519	1287.542725	4115.262695	2725.166260	50.840378
719.880737	1287.322144	4084.717285	2706.971436	50.748974
720.204834	1284.344727	4055.274902	2688.334961	50.668552
720.528931	1288.755615	4025.060303	2672.786865	50.580303
720.852966	1286.440063	3988.890625	2652.055664	50.532490
721.176941	1288.424805	3950.295410	2628.677979	50.350048
721.500916	1289.307129	3919.970703	2605.410400	50.029327
721.824829	1284.675537	3898.798096	2587.766602	49.848125
722.148743	1284.785767	3867.370117	2574.203125	49.927402
722.472534	1288.535034	3844.874268	2555.787598	49.572941
722.796326	1289.417236	3823.701660	2541.121338	49.390831
723.119995	1288.424805	3799.882813	2528.660400	49.383091
723.443665	1293.056396	3787.201172	2517.412842	49.089230
723.767334	1294.820801	3769.006348	2508.591064	49.057365
724.090942	1294.600220	3758.751221	2507.377930	49.216862
724.414551	1299.231689	3752.686035	2504.731445	49.134796
724.737976	1300.223999	3747.503418	2499.107422	48.988419
725.061462	1302.539795	3747.393555	2501.202637	49.027996
725.384888	1302.870728	3747.834717	2504.069824	49.129524
725.708252	1303.311768	3747.503662	2512.009521	49.451836
726.031616	1303.863159	3752.465820	2518.956787	49.623962
726.354858	1302.981079	3753.017090	2522.265137	49.765961
726.678162	1301.878296	3762.721436	2524.470459	49.681839
727.001404	1305.517334	3766.580811	2535.828613	49.991043
727.324463	1307.281860	3771.102051	2538.364746	49.966423
727.647583	1309.928345	3778.269775	2537.261963	49.723011
727.970642	1306.179077	3790.069092	2545.422363	49.891228
728.293701	1308.715210	3792.384766	2557.552246	50.281933
728.616699	1309.707642	3797.126221	2564.609375	50.449966
728.939575	1309.928223	3815.431152	2569.681885	50.279472
729.262512	1305.958252	3825.686768	2578.062744	50.485775
729.585266	1305.627441	3834.950195	2581.701904	50.451229
729.908142	1304.193848	3854.909180	2590.192871	50.417191
730.230896	1302.098633	3868.252197	2596.588623	50.444759
730.553467	1304.193848	3887.329346	2595.596436	49.993607
730.876160	1301.106201	3901.333740	2595.706543	49.787964
731.198792	1296.695313	3912.360840	2602.984619	49.940990
731.521362	1294.159058	3927.357910	2606.072266	49.822037
731.843872	1293.056152	3925.152832	2604.528320	49.826141
732.166321	1289.968506	3925.152832	2598.794189	49.667328
732.488770	1291.732910	3926.476074	2595.927002	49.499855
732.811157	1289.196655	3919.639404	2586.774658	49.329262
733.133484	1288.755615	3912.250732	2587.215576	49.493515
733.455811	1290.299438	3894.386475	2583.466064	49.659119
733.778015	1290.961182	3877.845947	2570.343750	49.456497
734.100281	1289.527710	3869.685547	2565.491699	49.452946
734.422424	1286.660522	3857.666016	2560.419189	49.543213
734.744507	1290.189331	3842.668945	2552.920654	49.470772
735.066589	1288.645508	3832.192627	2534.946289	48.998535
735.388611	1291.512695	3820.062988	2523.698486	48.730919
735.710571	1290.630493	3804.293945	2513.553467	48.651020
736.032532	1292.505005	3794.038574	2508.150146	48.595993
736.354431	1292.284424	3781.467529	2498.776855	48.469414
736.676270	1293.276733	3765.367920	2492.270752	48.501202
736.998108	1298.900879	3751.914551	2489.624268	48.541245
737.319824	1297.687866	3736.807373	2483.448975	48.614307
737.641541	1301.547485	3717.729980	2475.729736	48.596584
737.963135	1302.209106	3696.888672	2464.040771	48.517204
738.284790	1303.311890	3671.305176	2452.352051	48.523796
738.606323	1303.532227	3660.498047	2448.271973	48.568363
738.927856	1305.517334	3650.022217	2442.537842	48.497253
739.249390	1307.391968	3639.436279	2431.841553	48.217331
739.570740	1311.913086	3628.740234	2428.533203	48.196091
739.892212	1310.810303	3617.933350	2414.859375	47.853931
740.213562	1308.604858	3610.214355	2409.125488	47.815266
740.534790	1310.479614	3603.818359	2402.509033	47.617447
740.856079	1306.730347	3588.931641	2398.318359	47.830490
741.177246	1304.304443	3578.455322	2393.797363	47.907681
741.498413	1306.399536	3569.964600	2388.062988	47.785835
741.819580	1307.943237	3562.245605	2387.511719	47.889252
742.140625	1309.707642	3551.989990	2381.998047	47.821384
742.461670	1307.722534	3536.992920	2377.366699	47.981804
742.782654	1306.950562	3515.489990	2368.655273	48.072704
743.103577	1309.155884	3498.728760	2361.377197	48.056011
743.424438	1309.707275	3477.335938	2350.680908	48.023613
743.745300	1305.847900	3448.003418	2334.801514	48.033562
744.066101	1304.745117	3421.758545	2326.641357	48.270653
744.386902	1303.421875	3399.924561	2317.378418	48.364189
744.707581	1302.649902	3381.399170	2307.674561	48.347565
745.028198	1302.429443	3367.504395	2301.278564	48.368664
745.348816	1299.562378	3355.815430	2293.008301	48.313412
745.669373	1297.357056	3337.620605	2291.354248	48.719059
745.989929	1295.261963	3316.558350	2289.259033	49.176216
746.310364	1293.497437	3301.892090	2285.068848	49.371342
746.630798	1294.159180	3289.431641	2282.973633	49.557865
746.951172	1290.409912	3286.343750	2278.672852	49.513813
747.271545	1286.109375	3276.529297	2276.798096	49.772850
747.591858	1290.299683	3275.537109	2274.041260	49.552841
747.912109	1295.261841	3266.936035	2277.459717	49.815426
748.232300	1291.512695	3258.555176	2273.269287	49.910290
748.552429	1294.159180	3245.542725	2277.349365	50.384262
748.872559	1289.637817	3235.066895	2274.261719	50.612171
749.192627	1293.387329	3235.287598	2266.983887	50.136280
749.512695	1293.166626	3236.941162	2266.212158	50.059589
749.832642	1293.938477	3234.956543	2266.322266	50.096584
750.152588	1295.592651	3234.625732	2266.322266	50.062561
750.472473	1295.592651	3243.116455	2265.219482	49.787674
750.792358	1297.246704	3246.204346	2265.440186	49.677502
751.112122	1298.570068	3241.242188	2263.786133	49.684971
751.431824	1300.775391	3249.181641	2262.021484	49.334991
751.751587	1300.334351	3246.093750	2260.477783	49.345436
752.071228	1299.452148	3243.447510	2256.508057	49.231388
752.390869	1300.665161	3240.911133	2247.024658	48.775234
752.710327	1303.752808	3238.595215	2243.716309	48.580883
753.029846	1303.201416	3238.595215	2237.541016	48.276459
753.349304	1304.524780	3236.610596	2232.909668	48.050915
753.668762	1305.186279	3230.545654	2229.491455	48.006889
753.988098	1304.965820	3223.157471	2224.418945	47.933331
754.307434	1304.193848	3213.674072	2217.251221	47.817062
754.626770	1303.862915	3210.917480	2207.106201	47.363262
754.946045	1302.760376	3209.262939	2203.687500	47.255489
755.265259	1299.011108	3208.050293	2195.196533	46.944317
755.584351	1300.885742	3207.277832	2190.564941	46.668217
755.903442	1299.562500	3202.756592	2188.690186	46.717655
756.222534	1298.459839	3192.391357	2182.625488	46.684139
756.541565	1296.033813	3191.288330	2179.758301	46.628277
756.860535	1295.813354	3191.178223	2176.229736	46.451023
757.179443	1294.820923	3185.995605	2174.244873	46.501465
757.498291	1297.467529	3183.789795	2171.818848	46.352169
757.817139	1300.665405	3188.752197	2169.172119	45.999302
758.135925	1302.540039	3184.892822	2168.841553	46.022270
758.454651	1301.657837	3183.569092	2171.157227	46.202995
758.773376	1305.958374	3179.820313	2172.039551	46.219051
759.092041	1306.178955	3185.002930	2176.119385	46.302391
759.410645	1302.540039	3189.193359	2173.142090	46.145313
759.729187	1301.547485	3180.482178	2178.324707	46.663528
760.047607	1301.768188	3185.223633	2179.537842	46.604218
760.366089	1305.406982	3187.319092	2179.207031	46.431503
760.684509	1305.186523	3201.543945	2187.036377	46.502300
761.002869	1305.627563	3227.237305	2200.048340	46.545391
761.321228	1304.193970	3265.833008	2217.912598	46.579346
761.639465	1306.840576	3313.470703	2246.693848	46.837395
761.957642	1306.730225	3365.739990	2269.740723	46.770565
762.275879	1304.965820	3409.297607	2296.977783	47.141422
762.593994	1303.752930	3447.561768	2321.017334	47.451263
762.912109	1302.539673	3483.180176	2340.645752	47.605556
763.230103	1305.296387	3503.359863	2358.068848	47.895454
763.548157	1302.649780	3515.710449	2368.323975	48.153866
763.866150	1302.980713	3529.274170	2377.256348	48.253998
764.184021	1301.326660	3539.860596	2385.196045	48.418716
764.501892	1298.018555	3546.587158	2394.679199	48.771500
764.819702	1295.923340	3544.491699	2400.523926	49.124615
765.137451	1296.474731	3548.792725	2397.546387	48.886158
765.455200	1292.504883	3554.416748	2398.428711	48.893322
765.772888	1293.607666	3544.161377	2392.915283	48.846096
766.090515	1293.828247	3534.347168	2399.972656	49.370007
766.408081	1295.371948	3534.897949	2396.003174	49.145725
766.725586	1293.938477	3525.415283	2390.820068	49.154964
767.043091	1294.269287	3515.600342	2386.740234	49.180916
767.360535	1294.820679	3500.824463	2376.374512	49.027740
767.677917	1293.497437	3468.404053	2360.385010	49.054405
767.995239	1291.512573	3422.089355	2340.536133	49.236603
768.312500	1292.174194	3362.983643	2307.564453	49.033493
768.629822	1290.299561	3302.553467	2279.003906	49.134174
768.947021	1290.520142	3246.204346	2251.545654	49.140118
769.264160	1294.379639	3190.406738	2227.727051	49.226482
769.581299	1294.379639	3148.392822	2203.907959	49.057274
769.898376	1292.505005	3111.230713	2185.271729	49.087486
770.215393	1292.174072	3077.928467	2171.267334	49.228115
770.532349	1292.504883	3049.698975	2153.623779	49.005337
770.849304	1291.512451	3019.925293	2139.949951	49.087666
771.166199	1290.740601	2998.863281	2124.180908	48.792767
771.483032	1287.542725	2981.770752	2109.955811	48.542053
771.799866	1288.645508	2961.260010	2099.149170	48.457291
772.116577	1291.622803	2940.528564	2087.460205	48.264576
772.433350	1293.938599	2928.509033	2079.189697	48.040211
772.749939	1294.931030	2919.025391	2063.861816	47.345203
773.066589	1294.048828	2905.131348	2055.150146	47.241611
773.383057	1297.357178	2888.811035	2047.872192	47.159081
773.699646	1298.680420	2876.460205	2041.255615	47.064564
774.016113	1300.885864	2860.029785	2034.639282	47.061302
774.332520	1303.201660	2851.208008	2028.794800	46.872749
774.648804	1308.494751	2842.055176	2022.178589	46.537704
774.965149	1307.943359	2831.689697	2018.649902	46.642052
775.281433	1313.126099	2820.993164	2011.371826	46.306850
775.597656	1313.677490	2814.156494	2004.204102	46.020412
775.913879	1312.905640	2807.540283	1996.374756	45.728172
776.229980	1314.449463	2797.836426	1996.815796	46.000561
776.546082	1312.023315	2787.691162	1985.899048	45.665813
776.862122	1315.882935	2780.854248	1977.848999	45.186283
777.178162	1317.978149	2771.812012	1976.636108	45.304897
777.494141	1315.331421	2767.621582	1971.343018	45.170834
777.809998	1314.780151	2755.822266	1969.247803	45.416275
778.125854	1316.544556	2750.309082	1972.556030	45.754478
778.441711	1317.426758	2744.133789	1969.688965	45.718021
778.757446	1316.323975	2737.847900	1969.909424	45.977802
779.073181	1313.567017	2733.547363	1974.540894	46.548100
779.388855	1316.323853	2727.702637	1973.989624	46.597397
779.704468	1315.552124	2723.623047	1972.114990	46.628536
780.020020	1310.258911	2717.888672	1975.092407	47.230709
780.335571	1311.251343	2708.736328	1970.240479	47.155365
780.651062	1310.479492	2703.222168	1969.247925	47.300083
780.966553	1307.722656	2697.708740	1962.962646	47.140041
781.281860	1301.657471	2686.020020	1959.874756	47.546597
781.597290	1301.767944	2678.631592	1956.346191	47.541256
781.912476	1299.231812	2675.102783	1955.243286	47.679722
782.227722	1300.775635	2666.060547	1953.148071	47.782879
782.542908	1299.011108	2654.923096	1949.288696	47.958687
782.858093	1299.452148	2642.682373	1942.451660	47.869644
783.173218	1302.539917	2640.256836	1935.835205	47.341503
783.488281	1300.003662	2639.595215	1931.865479	47.168243
783.803345	1299.562622	2630.883789	1926.131348	47.063679
784.118225	1301.547485	2618.202148	1918.853394	46.884422
784.433167	1302.208862	2609.821533	1912.568115	46.677372
784.748047	1303.532227	2603.425537	1901.760986	46.021374
785.062866	1306.619995	2590.193115	1896.798706	45.979359
785.377686	1305.958374	2579.276123	1893.380371	46.133183
785.692444	1306.619995	2568.689697	1886.102539	45.915257
786.007141	1305.517334	2564.830078	1880.588745	45.665497
786.321716	1308.825439	2558.765137	1881.029785	45.778557
786.636353	1311.141113	2562.073242	1879.926880	45.468956
786.950928	1309.487061	2567.256104	1883.676147	45.651394
787.265442	1308.715088	2574.313721	1884.448120	45.490967
787.579834	1304.414551	2570.674561	1883.786499	45.754581
787.894226	1308.163696	2576.850098	1883.676392	45.362881
788.208618	1304.193970	2578.834961	1882.683960	45.384544
788.522949	1305.517212	2574.424072	1883.897095	45.580956
788.837219	1302.870605	2574.424072	1879.927246	45.382019
789.151367	1303.752808	2579.937500	1879.375977	45.105003
789.465515	1301.657593	2579.937744	1875.406250	44.884422
789.779602	1299.893188	2571.005615	1876.177979	45.337044
790.093689	1303.973267	2559.427002	1871.767334	45.226204
790.407776	1300.554688	2555.016113	1870.443848	45.428989
790.721741	1299.672607	2549.943848	1871.436157	45.731159
791.035645	1298.018555	2541.562988	1865.702026	45.650436
791.349548	1296.695190	2534.615967	1861.180664	45.599483
791.663391	1293.938477	2536.270020	1862.834839	45.792637
791.977173	1296.805664	2532.630859	1859.526611	45.534023
792.290894	1296.254150	2521.714111	1857.982910	45.838200
792.604614	1298.790771	2510.466064	1854.123291	45.831795
792.918274	1299.231812	2501.754639	1843.537231	45.263626
793.231812	1298.680542	2485.764893	1837.251465	45.369221
793.545410	1298.459839	2473.083496	1830.525146	45.296661
793.858948	1300.113892	2456.983398	1821.262085	45.048141
794.172363	1304.524780	2451.690186	1824.349731	45.313862
794.485840	1302.209106	2442.427490	1820.600220	45.464195
794.799194	1308.494629	2439.449951	1816.520264	44.920044
795.112488	1307.171265	2438.126953	1812.329956	44.666534
795.425781	1309.156128	2435.370117	1807.588135	44.257309
795.738953	1305.958374	2428.533203	1805.934204	44.538307
796.052185	1307.061035	2428.753906	1807.478027	44.612656
796.365234	1307.171265	2428.754150	1803.287354	44.233566
796.678284	1305.627441	2429.966797	1803.067017	44.242832
796.991333	1308.825317	2427.540771	1799.427979	43.854107
797.304382	1309.927979	2429.305176	1799.097290	43.700130
797.617310	1312.023193	2428.974121	1804.610718	44.101089
797.930115	1312.574463	2422.468262	1802.405273	44.133125
798.242981	1314.890259	2417.726318	1799.979370	43.985603
798.555786	1313.236084	2413.425781	1795.017090	43.790722
798.868530	1317.205933	2412.764160	1791.378296	43.281349
799.181213	1313.346436	2411.110352	1785.864624	43.043697
799.493896	1313.125854	2406.479004	1782.556519	42.934952
799.806519	1316.985474	2406.037842	1777.153076	42.253944
800.119080	1318.198608	2402.068115	1772.742432	41.937134
800.431580	1315.000610	2392.033203	1769.544434	42.203350
800.744080	1313.897949	2382.329346	1763.589600	42.088959
801.056458	1315.000732	2373.948486	1754.657715	41.518288
801.368835	1312.133667	2360.054199	1749.915771	41.776268
801.681152	1314.890381	2348.144531	1744.953491	41.622200
801.993408	1316.765015	2338.440430	1745.504883	41.964390
802.305664	1319.962891	2329.397949	1740.652710	41.675770
802.617798	1320.845093	2318.812012	1729.625610	40.961330
802.929993	1320.403809	2310.431396	1728.192139	41.189594
803.242065	1321.396240	2301.058105	1726.427856	41.344021
803.554016	1318.418945	2295.985596	1725.876343	41.680779
803.865967	1318.639404	2289.479492	1719.039429	41.242634
804.177979	1316.103271	2288.045898	1713.415405	40.878147
804.489807	1314.890381	2288.045654	1719.480469	41.575081
804.801697	1311.251343	2286.281494	1718.046875	41.721329
805.113464	1310.369263	2280.547363	1716.172485	41.827705
805.425232	1306.730225	2282.311523	1716.392822	41.991642
805.736938	1305.627563	2277.900879	1719.921631	42.610867
806.048584	1300.554932	2273.269287	1719.701050	43.090359
806.360168	1297.467285	2267.535400	1714.959229	43.037384
806.671753	1296.915771	2257.280029	1711.099854	43.127811
806.983276	1298.790527	2257.831299	1709.776611	42.853870
807.294739	1300.223999	2252.979248	1708.012085	42.800926
807.606140	1301.437012	2248.568359	1708.122192	42.938625
807.917542	1301.326782	2247.906738	1707.019531	42.858795
808.228760	1301.216431	2242.393311	1705.034546	42.905655
808.540100	1300.223999	2231.917236	1701.726563	43.093857
808.851318	1297.026123	2225.080322	1699.410767	43.357883
809.162476	1297.356934	2217.361328	1702.388184	44.024925
809.473633	1297.246704	2212.840088	1706.027100	44.646500
809.784668	1291.071411	2206.113525	1700.182617	44.709549
810.095703	1295.813110	2194.975830	1698.749268	44.812374
810.406738	1298.570068	2186.594971	1696.654053	44.828022
810.717590	1302.870605	2174.465332	1688.163086	44.205463
811.028503	1303.311890	2163.548096	1679.341309	43.712345
811.339294	1303.201416	2153.733887	1670.519531	43.186844
811.650085	1302.209106	2148.661377	1666.439331	43.030212
811.960876	1299.231812	2137.082764	1657.728027	42.787590
812.271545	1301.988525	2129.143311	1651.662720	42.274338
812.582153	1309.045898	2126.496582	1651.552612	41.899372
812.892761	1307.281616	2116.902832	1653.427124	42.754005
813.203308	1302.980957	2115.579590	1654.750610	43.289471
813.513855	1303.973511	2111.058594	1651.001343	42.997677
813.824280	1303.311768	2107.530029	1646.369995	42.657352
814.134705	1301.988525	2105.765869	1646.369751	42.845352
814.445068	1301.437012	2096.943604	1644.605469	43.138355
814.755371	1301.437012	2098.156738	1643.392334	42.920403
815.065613	1299.562378	2102.016113	1641.958862	42.668690
815.375854	1302.980835	2101.354492	1644.495117	42.776245
815.686035	1302.208984	2104.111328	1641.627930	42.326717
815.996155	1303.311646	2104.442139	1637.878662	41.761864
816.306152	1308.053467	2105.544922	1641.076660	41.758842
816.616211	1306.840454	2114.036133	1641.627930	41.475380
816.926208	1303.091187	2117.675049	1641.517700	41.545940
817.236145	1303.752930	2126.166016	1650.229370	42.129246
817.546021	1304.524780	2139.619141	1654.199219	41.872448
817.855774	1305.186401	2151.638916	1661.807983	42.131317
818.165588	1305.958252	2168.951660	1674.820068	42.742138
818.475281	1309.928101	2192.218750	1685.295898	42.544689
818.784973	1305.406860	2222.102783	1700.954834	43.149311
819.094604	1299.231689	2250.112061	1712.533447	43.465168
819.404175	1298.790405	2295.434082	1730.948608	43.361355
819.713684	1298.680298	2358.620117	1762.156006	43.726604
820.023254	1297.577515	2484.661865	1836.810669	45.425007
820.332642	1295.923340	2704.766113	1962.300781	47.299633
820.642090	1295.923584	2994.231445	2120.982910	48.581257
820.951416	1296.144043	3298.804688	2277.459717	49.000599
821.260681	1292.725586	3552.982910	2403.832275	49.158417
821.569946	1293.497559	3751.914551	2501.974609	49.156715
821.879150	1294.159180	3915.779785	2578.614502	48.994705
822.188293	1295.592773	4045.460449	2645.439453	49.087696
822.497437	1298.018799	4152.204102	2701.237549	49.163548
822.806458	1298.018799	4247.811035	2746.449219	49.102795
823.115479	1298.790649	4328.861328	2782.728760	48.973709
823.424438	1300.334473	4405.721191	2820.111328	48.940018
823.733337	1295.813232	4468.245605	2848.120605	48.931141
824.042236	1296.144043	4520.073730	2873.593262	48.929394
824.351013	1295.372192	4567.932129	2898.845703	48.997528
824.659790	1297.467407	4607.079102	2918.805176	48.988758
824.968445	1297.908447	4665.522949	2952.658936	49.137169
825.277100	1301.106445	4735.656250	2992.687744	49.251907
825.585693	1304.635010	4822.220703	3037.127686	49.252323
825.894287	1309.376709	4879.562012	3068.665527	49.277241
826.202820	1314.890381	4901.395996	3077.266357	49.139084
826.511292	1313.787720	4834.019531	3038.781738	49.002285
826.819702	1316.213745	4662.435059	2938.984863	48.495632
827.128113	1320.073242	4409.911133	2800.151855	47.901497
827.436401	1319.962769	4141.618164	2659.774902	47.483196
827.744751	1321.506592	3911.148438	2546.414551	47.300285
828.052917	1322.057983	3731.293945	2456.321777	47.079815
828.361145	1319.521729	3583.308105	2384.424316	47.040771
828.669312	1320.183350	3465.977295	2324.436279	46.800995
828.977356	1315.993164	3366.732178	2275.144043	46.770988
829.285400	1312.464233	3275.867920	2235.556396	47.014893
829.593384	1310.920532	3197.353516	2199.056152	47.080158
829.901306	1307.833008	3122.257813	2164.871582	47.234726
830.209167	1312.133667	3057.858887	2135.098145	47.141697
830.517029	1312.795288	2998.532471	2106.096436	47.059597
830.824829	1314.669922	2946.704346	2076.212402	46.662159
831.132568	1311.802856	2898.073975	2052.062500	46.666653
831.440247	1308.935791	2841.724609	2022.399170	46.546749
831.747925	1308.384399	2783.059814	1985.678345	45.928341
832.055481	1305.848022	2716.786133	1956.786865	46.135181
832.363037	1306.178833	2668.706787	1933.519287	46.042393
832.670532	1304.635010	2628.898438	1917.860474	46.306908
832.977966	1306.178833	2611.034180	1902.973633	45.736473
833.285400	1308.825317	2591.847168	1896.467773	45.801437
833.592712	1306.840454	2572.659668	1894.152100	46.397751
833.900085	1307.391724	2552.700195	1885.661255	46.435848
834.207275	1302.760254	2539.798096	1876.398438	46.371918
834.514526	1301.767822	2527.668213	1872.318481	46.541355
834.821716	1302.760376	2517.964111	1866.915039	46.424698
835.128784	1303.091187	2508.921631	1863.386108	46.465481
835.435852	1306.399292	2503.297852	1857.210693	46.019890
835.742798	1308.163696	2494.696533	1846.293701	45.353149
836.049805	1307.722534	2485.323730	1840.669800	45.257027
836.356750	1309.597168	2474.847656	1832.730225	44.894474
836.663574	1306.950562	2463.930664	1826.885742	44.938992
836.970398	1307.060913	2452.021484	1821.923584	44.967720
837.277161	1304.524658	2437.244629	1816.409790	45.190792
837.583923	1305.075928	2424.122314	1804.500366	44.629467
837.890564	1308.053345	2396.774658	1789.723755	44.241848
838.197205	1308.604858	2354.650391	1774.396240	44.528786
838.503784	1311.692505	2308.005371	1745.835693	43.574986
838.810303	1309.376709	2257.059326	1715.179932	42.820583
839.116699	1306.509766	2211.626953	1685.295898	41.849403
839.423096	1309.046021	2160.791260	1660.153687	41.222145
839.729492	1308.715210	2120.541992	1638.981445	40.681862
840.035828	1304.745361	2089.996582	1617.919312	39.882008
840.342102	1302.760620	2067.500732	1606.230469	39.682743
840.648315	1308.494751	2039.601807	1596.195679	39.351410
840.954529	1311.692505	2021.517090	1586.601929	38.729206
841.260620	1313.015747	2003.432251	1575.133545	37.965168
841.566711	1310.258911	1989.207275	1564.106445	37.388340
841.872803	1309.707397	1968.365845	1553.520142	37.016567
842.178772	1312.795044	1954.250977	1550.653198	37.080982
842.484680	1310.920532	1935.394165	1542.603271	37.100483
842.790588	1312.574585	1921.830688	1536.317749	36.723991
843.096436	1313.567017	1911.354858	1528.819336	36.008144
843.402222	1314.118286	1899.996826	1524.849365	35.968391
843.707947	1315.551880	1889.300415	1519.556396	35.556435
844.013611	1315.993042	1878.162720	1513.601563	35.151047
844.319275	1313.125977	1861.070679	1505.551758	35.117737
844.624817	1314.118530	1844.529785	1494.083374	33.929302
844.930359	1311.913086	1820.380005	1481.732788	33.398376
845.235901	1311.030884	1800.530884	1472.139160	32.912823
845.541321	1315.993164	1778.035400	1465.743286	32.410484
845.846680	1311.913086	1765.354004	1462.986572	33.317127
846.152039	1311.472046	1751.459839	1453.282471	32.230537
846.457275	1316.323975	1736.793335	1445.122314	30.632040
846.762512	1318.308838	1724.553223	1441.262817	30.266014
847.067749	1316.654785	1716.392822	1432.771729	29.048260
847.372925	1315.110840	1705.365479	1427.588867	28.821701
847.677979	1313.125977	1699.410889	1425.493652	29.089325
847.983032	1314.669922	1687.391235	1421.413452	28.638966
848.288025	1310.369263	1681.767456	1414.797241	28.117525
848.592957	1309.045898	1679.782349	1416.120483	28.881592
848.897888	1312.905518	1675.812744	1418.766968	29.170389
849.202759	1312.133667	1675.151001	1418.766968	29.374163
849.507507	1308.715210	1670.739990	1415.458862	29.485178
849.812317	1308.825439	1668.093506	1414.135620	29.312424
850.117004	1308.163818	1667.211182	1413.915039	29.453279
850.421631	1305.958374	1663.682617	1408.180786	28.575758
850.726257	1304.745361	1661.146240	1409.945068	29.517241
851.030823	1304.635010	1660.154053	1406.416382	28.628950
851.335327	1303.421875	1660.264282	1407.960205	29.295378
851.639771	1301.326782	1656.404785	1409.173218	30.372604
851.944153	1296.805664	1654.419800	1409.724609	31.575638
852.248535	1297.136353	1657.507446	1403.108398	29.406366
852.552856	1295.041260	1663.792725	1404.431641	29.665070
852.857056	1291.733032	1663.131104	1401.564575	29.572458
853.161255	1286.770874	1662.579834	1399.800171	30.076265
853.465393	1284.124268	1660.594727	1402.557007	31.458708
853.769531	1279.382568	1652.765381	1399.248779	32.102768
854.073547	1280.044189	1649.788086	1394.066040	30.838062
854.377563	1280.375000	1644.715576	1392.081055	30.659790
854.681580	1280.485474	1645.156616	1393.624878	31.025049
854.985474	1280.926392	1640.194336	1390.427002	30.478815
855.289307	1279.492920	1640.525269	1386.236694	29.566263
855.593140	1276.736084	1639.312134	1384.803223	29.805372
855.896851	1277.066895	1640.525269	1390.537354	31.219658
856.200623	1276.736084	1638.981445	1389.765503	31.202448
856.504272	1275.633423	1635.783691	1383.259521	29.883665
856.807922	1278.169678	1635.452759	1389.434692	31.141977
857.111389	1280.044312	1639.312256	1386.898438	29.742182
857.414978	1278.390259	1637.768555	1383.259521	29.180744
857.718445	1279.382568	1635.121826	1382.928589	29.107279
858.021790	1284.565308	1632.585693	1380.392334	27.534889
858.325195	1287.322144	1635.452881	1378.738037	26.259069
858.628479	1291.071655	1630.380371	1383.149170	27.136797
858.931763	1289.637817	1624.315308	1382.266968	27.677137
859.234985	1288.866089	1626.410522	1384.362061	28.291378
859.538147	1291.071533	1623.763916	1382.487305	27.477568
859.841248	1294.710571	1626.410522	1381.715454	26.229996
860.144287	1297.687866	1629.828857	1381.053833	25.099571
860.447266	1298.459717	1628.615723	1383.920898	25.885090
860.750305	1296.915894	1632.585571	1387.559937	27.003941
861.053223	1299.121338	1634.680786	1390.757935	27.308603
861.356018	1295.592651	1635.342407	1390.868164	28.042849
861.658813	1294.489746	1634.460205	1390.757690	28.316561
861.961609	1299.672607	1630.049316	1392.411987	28.070799
862.264343	1299.562256	1629.056885	1388.662720	27.041553
862.567017	1301.216309	1630.821289	1384.031250	25.125513
862.869629	1302.539673	1627.843994	1388.111206	26.305071
863.172180	1302.429443	1623.322754	1384.251831	25.498316
863.474670	1302.980713	1619.463135	1380.612793	24.529665
863.777161	1304.083496	1617.037231	1384.582642	25.722380
864.079590	1303.973267	1616.044800	1384.472412	25.795094
864.381958	1302.760254	1622.330322	1384.141602	25.465885
864.684265	1300.665161	1622.991943	1384.472412	26.000710
864.986511	1297.246704	1621.889160	1382.156616	26.154902
865.288757	1299.341797	1621.338013	1383.038818	25.993170
865.590942	1301.988281	1621.117432	1382.156616	25.120970
865.893066	1303.642578	1622.661133	1381.936157	24.542015
866.195068	1301.988403	1619.352905	1376.863525	23.592785
866.497131	1300.223999	1619.353027	1377.525146	24.222538
866.799133	1304.193848	1623.874023	1378.738159	23.318403
867.100952	1304.965698	1619.794067	1377.635376	23.082315
867.402832	1306.619751	1616.816650	1373.665649	21.613981
867.704651	1309.597168	1615.272827	1372.893799	20.707121
868.006409	1309.045898	1617.808960	1374.878662	21.321451
868.308105	1307.612305	1620.345459	1371.019287	20.275106
868.609802	1310.810303	1620.896973	1368.813721	18.705551
868.911438	1310.148682	1618.360474	1369.916504	19.391802
869.213013	1310.479370	1617.478394	1368.703369	18.965532
869.514465	1310.258911	1621.117432	1370.026733	19.226696
869.815979	1312.133545	1620.345459	1371.019287	19.105602
870.117371	1311.802734	1622.771362	1370.026855	18.723471
870.418701	1315.000610	1624.425537	1364.513062	16.001442
870.720093	1317.536987	1622.440674	1365.836426	15.840884
871.021301	1319.080811	1621.558350	1368.262329	16.259560
871.322571	1320.955322	1622.550781	1369.364990	16.051193
871.623718	1319.301392	1625.638550	1369.254761	16.306664
871.924805	1318.088379	1625.417969	1373.114258	17.904516
872.225891	1318.970581	1625.528442	1374.988892	18.273323
872.526917	1321.396484	1629.277588	1379.179321	18.767906
872.827881	1323.491699	1626.631104	1381.605225	19.170561
873.128784	1318.970459	1619.242920	1379.730591	20.235001
873.429626	1317.867798	1620.345581	1377.304565	19.649961
873.730408	1317.757568	1618.691406	1380.171753	20.740168
874.031189	1314.338989	1621.338013	1377.966309	20.725576
874.331848	1314.780151	1621.227661	1374.106812	19.359486
874.632568	1311.692627	1620.786499	1374.878662	20.442345
874.933167	1311.251343	1620.896973	1376.091797	20.940212
875.233704	1309.156250	1623.102295	1378.407349	22.058281
875.534241	1308.494629	1626.630981	1379.620361	22.356997
875.834717	1307.171509	1627.513184	1380.392212	22.857065
876.135071	1303.752930	1634.570679	1382.487427	23.799961
876.435425	1302.539917	1634.019165	1385.244141	24.950047
876.735779	1304.635132	1635.893799	1392.301636	26.464666
877.036011	1298.901001	1636.004150	1393.404297	28.033941
877.336182	1297.246948	1638.650635	1393.735107	28.262190
877.636353	1294.931152	1645.928589	1395.609863	28.683603
877.936462	1294.931030	1651.001099	1402.667236	30.257025
878.236511	1297.908447	1661.366821	1406.967896	30.006035
878.536560	1297.798218	1679.782349	1416.341064	31.033447
878.836487	1297.246826	1703.049805	1432.110107	33.233685
879.136414	1294.379639	1762.486816	1462.655640	35.948177
879.436279	1291.843506	1852.138428	1507.536499	38.496330
879.736084	1293.276855	1963.513550	1568.186401	41.016785
880.035828	1290.961182	2086.908691	1627.072144	42.227779
880.335510	1293.938477	2202.694824	1686.398804	43.186531
880.635193	1293.276855	2303.594238	1738.447388	44.062443
880.934753	1297.797852	2393.576904	1783.107910	44.289043
881.234314	1296.474854	2473.193359	1820.710693	44.550659
881.533752	1298.569946	2539.467529	1850.374023	44.468140
881.833252	1297.798096	2600.889404	1878.603760	44.571373
882.132629	1298.570068	2658.892822	1904.738037	44.560600
882.431946	1298.680298	2704.766113	1928.777710	44.812160
882.731323	1299.893433	2746.559326	1948.516602	44.835728
883.030579	1298.459839	2780.192627	1965.829224	45.039795
883.329712	1298.018677	2813.053955	1980.606201	45.054234
883.628845	1298.790527	2833.675049	1993.948853	45.290596
883.927979	1298.900879	2847.128174	2003.652954	45.519936
884.226990	1299.452148	2858.045166	2003.763428	45.188915
884.526001	1296.144043	2861.684082	2002.109131	45.094028
884.824951	1296.695435	2855.398682	1994.610840	44.775387
885.123840	1295.702881	2838.306396	1982.921875	44.549294
885.422729	1297.687744	2793.645996	1955.684570	43.984974
885.721497	1300.223999	2709.948975	1915.434937	43.640495
886.020203	1301.216553	2605.962158	1859.085571	42.756920
886.318909	1302.760376	2484.331299	1801.082031	42.174503
886.617554	1302.980835	2367.773193	1742.307129	41.259338
886.916138	1302.980957	2268.858643	1694.779419	40.563984
887.214661	1300.554932	2181.522705	1652.655151	39.967434
887.513184	1301.106323	2099.369629	1616.044800	39.452957
887.811523	1298.018677	2028.905518	1584.727539	39.227531
888.109924	1303.752808	1794.686401	1468.169312	33.490578
888.408264	1292.174194	1871.105347	1482.063599	32.799999
888.706543	1294.489868	1690.478760	1472.800659	45.029240
889.004761	1331.541504	1743.740479	1442.696289	26.966293
889.302979	1313.015747	1655.742920	1440.380615	37.162174
889.601135	1329.225830	1637.217163	1398.697510	22.556376
889.899170	1282.911255	1678.900146	1428.801880	36.842102
890.197205	1313.015747	1667.321533	1403.328979	25.490194
890.495178	1299.121338	1597.849854	1380.171753	27.131798
890.793091	1271.332642	1570.061157	1375.540283	34.883728
>>>>>End Processed Spectral Data<<<<<
