Jaz Data File
++++++++++++++++++++++++++++++++++++
Date: Thu Sep 26 04:28:39 2019
User: jaz
Dark Spectrum Present: Yes
Reference Spectrum Present: Yes
Processed Spectrum Present: Yes
Spectrometers: JAZA3541
Integration Time (usec): 100000 (JAZA3541)
Spectra Averaged: 1 (JAZA3541)
Boxcar Smoothing: 10 (JAZA3541)
Correct for Electrical Dark: No (JAZA3541)
Strobe/Lamp Enabled: Yes (JAZA3541)
Correct for Detector Non-linearity: No (JAZA3541)
Correct for Stray Light: No (JAZA3541)
Number of Pixels in Processed Spectrum: 2048
>>>>>Begin Processed Spectral Data<<<<<
W	D	R	S	P
190.543274	0.000000	0.000000	0.000000	0.000000
190.921555	0.000000	0.000000	0.000000	0.000000
191.299805	1296.805664	1336.172974	1169.440796	-323.529510
191.678024	1229.649658	1322.278564	1194.913818	-37.500000
192.056229	1345.435913	1313.015747	1201.860962	442.856934
192.434387	1331.541504	1278.279907	1252.806885	147.826248
192.812531	1303.752808	1324.594360	1245.859741	-277.777130
193.190659	1310.699951	1296.805664	1206.492432	750.002625
193.568741	1319.962891	1359.330200	1206.492432	-288.235229
193.946793	0.000000	0.000000	0.000000	0.000000
194.324829	1207.815674	1211.785522	1111.217041	-2433.307617
194.702835	1271.994385	1273.317627	1168.227905	-7841.835938
195.080811	1337.606445	1335.070313	1227.995605	4321.967773
195.458755	1337.827148	1332.203125	1230.090820	1915.645020
195.836685	1338.268188	1331.541626	1229.539429	1616.408936
196.214569	1339.811890	1336.172974	1232.626953	2945.518311
196.592422	1341.907104	1340.032471	1232.737305	5823.526855
196.970261	1342.679077	1342.127686	1231.414063	20178.945313
197.348068	1343.781860	1343.120117	1232.296265	16847.259766
197.725861	1344.222900	1342.127563	1233.509155	5283.815918
198.103622	1343.561279	1338.157837	1235.604248	1997.930664
198.481323	1340.253052	1337.496216	1234.611816	3831.973877
198.859039	1337.937378	1335.290771	1238.802124	3745.749756
199.236694	1335.070313	1335.621460	1237.037720	-17786.998047
199.614334	1333.416138	1335.511230	1236.155518	-4642.306152
199.991959	1329.115479	1337.937134	1240.015137	-1010.018433
200.369553	1324.373657	1337.826904	1240.125488	-626.229248
200.747101	1322.499023	1341.355835	1232.847412	-475.433563
201.124619	1320.514038	1341.576294	1234.170654	-409.943665
201.502136	1316.323608	1346.538452	1229.208374	-288.319336
201.879623	1313.677246	1349.736450	1231.855103	-226.910568
202.257065	1311.030640	1351.500854	1230.531860	-198.908707
202.634476	1309.927979	1352.934570	1234.281128	-175.895950
203.011871	1305.186279	1354.809082	1235.053101	-141.332565
203.389221	1303.091064	1361.866455	1231.744995	-121.387657
203.766571	1304.745117	1367.931519	1236.927734	-107.329079
204.143875	1300.334229	1365.064331	1235.824951	-99.658852
204.521164	1296.254272	1365.284912	1238.581787	-83.546211
204.898392	1297.798096	1363.300049	1241.448730	-86.027000
205.275620	1298.459717	1368.703369	1242.771973	-79.277977
205.652817	1293.718018	1368.482910	1243.764404	-66.814262
206.029984	1293.607666	1372.673218	1239.904907	-67.921814
206.407135	1291.953613	1374.988892	1238.912476	-63.877834
206.784225	1292.394775	1374.437378	1233.067993	-72.312164
207.161301	1293.607910	1372.893555	1232.516602	-77.052170
207.538376	1298.570190	1373.555176	1233.398682	-86.912743
207.915405	1302.209229	1370.798462	1234.060425	-99.357872
208.292404	1303.422119	1370.798584	1236.486450	-99.345772
208.669373	1305.406860	1366.718506	1238.802124	-108.633095
209.046310	1302.319336	1363.961670	1236.927490	-106.082687
209.423218	1303.863159	1361.645874	1238.692017	-112.786568
209.800095	1305.737793	1357.124756	1233.950317	-139.699783
210.176956	1308.715210	1353.265137	1234.391357	-166.832718
210.553787	1308.163818	1355.911743	1232.626953	-158.199265
210.930603	1309.597412	1356.242554	1233.398926	-163.357819
211.307358	1315.221313	1353.485718	1236.817383	-204.900436
211.684113	1317.316406	1349.846680	1232.075684	-262.035065
212.060837	1316.985596	1348.413086	1229.098267	-279.651123
212.437531	1316.765015	1350.839233	1226.451782	-265.048584
212.814178	1314.008179	1354.037109	1226.672241	-218.182037
213.190826	1312.574585	1351.280273	1224.025635	-228.775024
213.567413	1313.125977	1352.383057	1224.466919	-225.842209
213.943985	1310.258789	1357.345337	1227.995605	-174.706345
214.320541	1309.266479	1357.124756	1229.318848	-167.050797
214.697052	1307.612305	1361.315186	1229.318604	-145.790512
215.073563	1309.266357	1363.300049	1231.744751	-143.469025
215.449997	1303.863159	1360.874023	1233.509155	-123.404556
215.826431	1301.326904	1362.086914	1236.376099	-106.897293
216.202850	1300.334351	1364.954102	1233.178345	-103.924889
216.579224	1298.459717	1369.695923	1231.524292	-93.962646
216.955582	1300.885742	1374.989014	1234.722290	-89.285469
217.331894	1300.554932	1374.217041	1236.265991	-87.275452
217.708191	1300.003418	1376.863647	1237.809937	-80.917641
218.084442	1300.113770	1383.480103	1238.140869	-74.338043
218.460678	1296.915771	1384.141602	1238.361206	-67.129845
218.836899	1295.041260	1385.685303	1235.273682	-65.936577
219.213074	1292.615234	1387.339478	1235.273560	-60.535374
219.589233	1294.269287	1392.191650	1239.022827	-56.418633
219.965347	1296.805542	1398.697510	1245.087769	-50.757458
220.341431	1295.592529	1399.359131	1244.867310	-48.883957
220.717499	1296.254150	1400.241455	1242.992798	-51.219090
221.093552	1295.041260	1402.336548	1243.433838	-48.098499
221.469543	1299.011108	1407.078247	1243.764404	-51.122574
221.845535	1302.980835	1407.409058	1241.889893	-58.500412
222.221466	1305.296631	1411.709595	1244.315796	-57.305832
222.597397	1305.186279	1417.884766	1247.513794	-51.174145
222.973297	1302.760376	1426.706543	1248.506226	-43.772350
223.349167	1300.554932	1437.403076	1246.190430	-39.726151
223.725006	1297.467285	1446.996826	1244.867188	-35.177059
224.100800	1295.041260	1454.385010	1250.601318	-27.889353
224.476578	1295.372070	1465.081543	1255.563599	-23.456835
224.852325	1297.577515	1475.778076	1252.255371	-25.433222
225.228058	1298.680298	1495.847778	1253.027344	-23.154404
225.603760	1297.577637	1523.195313	1257.769165	-17.644217
225.979416	1295.261963	1552.086792	1260.746460	-13.439317
226.355057	1295.372192	1590.351318	1262.841675	-11.028074
226.730652	1296.805664	1642.069214	1269.678589	-7.856918
227.106232	1296.915894	1691.912231	1274.310059	-5.723049
227.481796	1294.159180	1736.903687	1280.485352	-3.088424
227.857315	1292.946167	1778.145630	1284.896240	-1.659096
228.232788	1296.033813	1815.638184	1288.755859	-1.400672
228.608246	1296.695435	1848.058350	1294.379761	-0.419991
228.983704	1297.026245	1883.345459	1300.334473	0.564237
229.359100	1297.577637	1916.206665	1304.745239	1.158627
229.734482	1293.166748	1945.870117	1311.582275	2.821424
230.109833	1290.189453	1973.768921	1313.567139	3.419893
230.485153	1290.189331	1989.979126	1315.882935	3.671617
230.860443	1289.527710	2012.585205	1319.411499	4.132976
231.235703	1293.166748	2031.331421	1322.609619	3.988659
231.610931	1293.607788	2055.481445	1324.815063	4.096122
231.986145	1293.056396	2079.300049	1325.917725	4.179535
232.361313	1290.189209	2098.708252	1332.644287	5.250968
232.736465	1287.983765	2121.313965	1338.598999	6.073851
233.111572	1285.888550	2134.656982	1344.443359	6.898797
233.486664	1288.865845	2141.052734	1349.405518	7.104037
233.861725	1290.409668	2141.604248	1355.360352	7.630533
234.236755	1292.284302	2138.957520	1359.771240	7.970837
234.611771	1296.474731	2120.873047	1360.322510	7.744773
234.986740	1298.900635	2101.023926	1361.866333	7.849878
235.361679	1299.782959	2083.710938	1360.763550	7.778851
235.736588	1298.570068	2073.235107	1357.455444	7.601398
236.111496	1297.908447	2069.375488	1358.778809	7.890209
236.486343	1298.459717	2071.139893	1362.528076	8.291705
236.861160	1301.106323	2071.250000	1369.144409	8.834467
237.235962	1300.334351	2079.961426	1375.870972	9.688814
237.610733	1302.760376	2089.996338	1381.164185	9.959378
237.985474	1301.437134	2106.978271	1390.757813	11.088283
238.360199	1300.665283	2140.501221	1401.785034	12.040418
238.734879	1301.767944	2177.662842	1416.010254	13.042925
239.109543	1300.334473	2227.616455	1434.094971	14.425008
239.484177	1304.635132	2281.650146	1458.796021	15.778764
239.858749	1310.810303	2350.680908	1484.268921	16.680788
240.233322	1311.361694	2434.047119	1508.087769	17.522814
240.607864	1313.126099	2511.899414	1535.325195	18.535540
240.982391	1314.559570	2592.618896	1563.334473	19.465052
241.356857	1316.213745	2651.063232	1589.579468	20.479141
241.731308	1315.000610	2704.435059	1609.208008	21.174616
242.105728	1317.977905	2744.684814	1630.711182	21.919939
242.480118	1312.354126	2785.926758	1648.134277	22.786806
242.854492	1310.479492	2835.880127	1671.842773	23.689730
243.228836	1309.045898	2893.442383	1696.433594	24.450174
243.603134	1312.905518	2957.290283	1730.397461	25.388945
243.977402	1312.023193	3046.721436	1766.236206	26.183979
244.351654	1310.920532	3168.241699	1814.314941	27.103251
244.725861	1310.810303	3315.235107	1868.679321	27.831875
245.100067	1311.912964	3466.970215	1925.249023	28.460316
245.474213	1311.361694	3603.377197	1989.317383	29.579018
245.848343	1316.985474	3710.341553	2039.381104	30.183376
246.222443	1318.198486	3794.700195	2084.041504	30.924389
246.596512	1318.419067	3855.019287	2114.476807	31.382864
246.970566	1321.286133	3892.181641	2137.744141	31.757729
247.344574	1320.845093	3904.862793	2145.684082	31.920795
247.718567	1317.206055	3891.740234	2150.425537	32.363892
248.092529	1318.749756	3859.430420	2153.733887	32.864586
248.466431	1315.441650	3833.075195	2156.049805	33.388821
248.840332	1313.236206	3807.051025	2155.167725	33.760784
249.214203	1311.030640	3809.476563	2154.616211	33.764412
249.588043	1313.787598	3825.797363	2167.849121	33.999134
249.961838	1310.038330	3853.696045	2183.066895	34.321777
250.335617	1313.677124	3886.888428	2204.790283	34.630390
250.709381	1313.456665	3901.664795	2219.346191	35.000645
251.083084	1318.198608	3899.569824	2226.183105	35.174503
251.456787	1314.780029	3882.367188	2216.479004	35.118534
251.830460	1316.434204	3829.656738	2205.451904	35.373615
252.204071	1313.456787	3746.069824	2179.978516	35.621025
252.577667	1310.038452	3638.995117	2145.794189	35.885414
252.951248	1310.369263	3513.615234	2104.552246	36.046040
253.324799	1308.604858	3406.099365	2059.119873	35.781498
253.698303	1305.737671	3326.152100	2028.464233	35.771202
254.071793	1305.296631	3267.817627	2002.991211	35.550938
254.445236	1304.083618	3233.853760	1989.207031	35.502850
254.818665	1300.113770	3219.959473	1981.818848	35.508327
255.192062	1300.003418	3219.077393	1987.773682	35.838654
255.565430	1300.444458	3243.888672	1996.705688	35.826149
255.938782	1301.878052	3283.365967	2011.592651	35.817257
256.312103	1304.745117	3340.266846	2028.133423	35.538227
256.685364	1306.730225	3419.442383	2056.804199	35.502895
257.058594	1304.965820	3518.357178	2092.753174	35.591869
257.431793	1302.098633	3646.714600	2131.899902	35.391777
257.804993	1302.760254	3790.178955	2183.397217	35.403648
258.178162	1299.672729	3928.240234	2232.468262	35.486839
258.551270	1298.128906	4052.517578	2276.687744	35.527260
258.924377	1294.379639	4145.587402	2313.408447	35.740250
259.297485	1293.938599	4222.999023	2347.262207	35.961140
259.670502	1293.056396	4286.625977	2370.750488	36.000301
260.043518	1295.151489	4346.063477	2387.180908	35.793541
260.416473	1298.569946	4394.473145	2403.832520	35.700809
260.789459	1297.026123	4449.830078	2423.902100	35.742023
261.162354	1297.246704	4497.467773	2437.686035	35.636265
261.535278	1298.349365	4541.796875	2444.964111	35.351727
261.908142	1298.790527	4576.092285	2452.241943	35.195156
262.280975	1301.216553	4595.279297	2462.938477	35.267147
262.653717	1302.870605	4609.834961	2469.554443	35.279602
263.026520	1300.113892	4627.809570	2471.870361	35.212246
263.399261	1297.357056	4643.688477	2475.288574	35.200684
263.771973	1296.915894	4654.495605	2474.847656	35.082764
264.144653	1298.239258	4653.502930	2472.201172	34.988663
264.517334	1301.106323	4633.103027	2464.371826	34.911964
264.889954	1302.208862	4586.678223	2447.500244	34.869907
265.262543	1305.627563	4506.179199	2421.806641	34.874584
265.635071	1308.053589	4405.610840	2379.461914	34.588814
266.007599	1311.802856	4310.224609	2334.139648	34.095829
266.380127	1312.133545	4240.201660	2300.837402	33.766422
266.752594	1315.882935	4205.575684	2278.672363	33.318054
267.125031	1315.000732	4197.084473	2265.770752	32.988979
267.497437	1313.236328	4212.963867	2261.469971	32.700783
267.869843	1316.544556	4239.098633	2262.903809	32.381237
268.242218	1313.567261	4277.473633	2272.607910	32.357319
268.614532	1311.913208	4335.697754	2286.722412	32.238049
268.986816	1312.354126	4430.973633	2309.108154	31.961386
269.359100	1311.471924	4539.150879	2342.410645	31.940559
269.731354	1310.038452	4652.510742	2375.051025	31.863020
270.103516	1311.030762	4749.219727	2400.083252	31.675179
270.475708	1311.361572	4830.049805	2425.445801	31.661919
270.847839	1314.890381	4902.499023	2443.750977	31.465544
271.219971	1318.419067	4961.053711	2460.181641	31.344416
271.592041	1320.403809	5006.596191	2469.444580	31.171482
271.964081	1321.065552	5036.369629	2471.760254	30.971748
272.336151	1316.434204	5064.048340	2472.311523	30.843018
272.708130	1316.654785	5090.182129	2473.744873	30.663355
273.080109	1313.015869	5107.385254	2473.414307	30.582115
273.452026	1311.582275	5141.238770	2477.053223	30.432781
273.823914	1310.369263	5176.085449	2486.867676	30.434164
274.195770	1310.369263	5215.893555	2494.145752	30.310308
274.567627	1309.376831	5261.987793	2502.305664	30.180780
274.939423	1310.700073	5304.332031	2518.184814	30.235254
275.311249	1312.243896	5345.464355	2527.778564	30.138067
275.682983	1310.479492	5376.120117	2540.239502	30.247631
276.054688	1309.707520	5401.151855	2541.121582	30.097294
276.426422	1307.943115	5403.577148	2540.790771	30.101509
276.798065	1312.243896	5370.495117	2531.858887	30.052723
277.169708	1313.236206	5325.172852	2514.766602	29.948889
277.541321	1317.757446	5277.536133	2500.320801	29.864380
277.912903	1316.985352	5267.832031	2495.468750	29.828629
278.284424	1316.764893	5279.741211	2490.727051	29.623245
278.655945	1315.882813	5301.685547	2497.012695	29.633425
279.027435	1312.574707	5332.010254	2507.488525	29.728399
279.398865	1310.920532	5391.226563	2527.227051	29.809198
279.770294	1307.502075	5467.424805	2556.780273	30.031282
280.141663	1310.810303	5539.763672	2582.583984	30.073015
280.513031	1313.015869	5615.631348	2609.931641	30.142500
280.884369	1315.993164	5680.912598	2630.111816	30.106367
281.255676	1314.559570	5725.462402	2648.857910	30.250006
281.626953	1313.787720	5763.727051	2665.067871	30.366259
281.998199	1316.654907	5805.189453	2680.395996	30.382769
282.369385	1313.346680	5856.245605	2700.465576	30.533783
282.740540	1313.236328	5915.572754	2721.307129	30.594696
283.111694	1311.802856	5983.280273	2749.978027	30.786303
283.482819	1310.479492	6070.064941	2781.846680	30.913767
283.853912	1314.559570	6165.339844	2821.434570	31.064590
284.224945	1315.441772	6257.858398	2859.037354	31.231596
284.595978	1313.346436	6348.502930	2899.066162	31.492960
284.966980	1311.030762	6425.914551	2941.410889	31.875214
285.337952	1309.817749	6500.238281	2974.382324	32.069939
285.708893	1306.730103	6535.746094	2999.303955	32.368877
286.079803	1305.406860	6558.352051	3032.275391	32.874290
286.450684	1304.745239	6574.893066	3058.079346	33.269161
286.821533	1307.391846	6588.677246	3080.685059	33.576927
287.192322	1306.399414	6596.506836	3106.819824	34.033722
287.563110	1307.391968	6602.571289	3139.239990	34.594639
287.933868	1303.642700	6627.272461	3178.717529	35.221737
288.304596	1299.672852	6668.735352	3219.628662	35.759609
288.675262	1300.885742	6725.304199	3274.213867	36.378613
289.045929	1301.326782	6777.683594	3334.863525	37.133022
289.416565	1300.113770	6826.645020	3387.573730	37.771614
289.787170	1296.805664	6843.957520	3439.181641	38.621189
290.157745	1293.718018	6845.170898	3485.716553	39.485130
290.528259	1293.497437	6840.870605	3525.855713	40.241722
290.898773	1294.820801	6830.614746	3561.252930	40.941410
291.269226	1294.269287	6813.852539	3602.605225	41.820839
291.639679	1290.630371	6797.202148	3641.752197	42.696651
292.010101	1294.820801	6810.876465	3695.234375	43.516850
292.380463	1293.828369	6840.539551	3758.641113	44.437374
292.750824	1298.680298	6882.332031	3816.975342	45.101215
293.121155	1300.775391	6928.756836	3884.352051	45.905918
293.491455	1307.502197	6990.068359	3958.124268	46.644806
293.861725	1310.920532	7072.000977	4028.037598	47.163326
294.231964	1313.125977	7184.479004	4116.585938	47.748108
294.602142	1314.669678	7298.721680	4212.192383	48.420750
294.972321	1314.669800	7398.077148	4302.836426	49.119949
295.342468	1316.213623	7496.991699	4383.335938	49.623562
295.712555	1317.095825	7559.295410	4449.499023	50.181080
296.082672	1318.419067	7583.776855	4506.068848	50.877380
296.452728	1315.882813	7585.761719	4540.252930	51.426353
296.822693	1319.080688	7589.400879	4567.380371	51.804367
297.192657	1321.065552	7589.180664	4589.104004	52.137501
297.562622	1322.388916	7606.824219	4611.048340	52.330227
297.932556	1326.027954	7627.886230	4637.403320	52.546017
298.302460	1328.233398	7634.833496	4662.545410	52.870197
298.672333	1327.792358	7640.347656	4688.238770	53.234329
299.042145	1329.005127	7636.597656	4702.243164	53.479008
299.411957	1330.218140	7623.033691	4714.263184	53.776325
299.781677	1326.027954	7584.768555	4707.536621	54.028580
300.151428	1326.579224	7523.125977	4692.318848	54.316376
300.521149	1326.248291	7458.727051	4669.051270	54.509819
300.890839	1322.829956	7386.829590	4638.726563	54.681675
301.260468	1317.095825	7310.961914	4604.432129	54.845009
301.630096	1318.418945	7223.515625	4563.300293	54.950520
301.999695	1319.080688	7102.436523	4509.377441	55.163418
302.369232	1316.323975	6976.063965	4449.058105	55.351200
302.738739	1314.449219	6859.727051	4380.137695	55.284668
303.108246	1310.699951	6722.106445	4315.848145	55.533592
303.477692	1311.251343	6610.841309	4255.859863	55.562950
303.847137	1311.361816	6522.182129	4205.134766	55.533924
304.216553	1311.361572	6456.680176	4173.927246	55.634373
304.585876	1310.369141	6397.794434	4142.830566	55.675735
304.955231	1309.597046	6350.267090	4125.958984	55.872768
305.324493	1306.619751	6311.010254	4110.520996	56.028828
305.693787	1306.178711	6280.244629	4094.641846	56.060036
306.063049	1306.509521	6274.399414	4089.018311	56.009876
306.432251	1307.391846	6272.414551	4090.230957	56.048874
306.801422	1305.627319	6267.783691	4090.230957	56.116806
307.170593	1304.524658	6268.334961	4094.200928	56.200298
307.539673	1303.642456	6275.171875	4103.574219	56.319324
307.908783	1304.304077	6290.831055	4106.330566	56.191944
308.277832	1302.650146	6307.150879	4124.305176	56.382347
308.646851	1300.444702	6338.357910	4153.857910	56.638790
309.015839	1303.973389	6378.717773	4176.243164	56.599300
309.384796	1298.239258	6410.586914	4202.818848	56.814987
309.753723	1295.151733	6446.205566	4226.858398	56.914696
310.122620	1294.600220	6472.339844	4242.075684	56.925911
310.491486	1296.144165	6484.690430	4258.286621	57.090027
310.860352	1299.342041	6501.231445	4268.761719	57.083481
311.229126	1299.452148	6515.456055	4282.987305	57.199635
311.597931	1298.680298	6523.726074	4292.912109	57.305370
311.966675	1300.224121	6544.016602	4305.262207	57.306580
312.335388	1300.665161	6579.523926	4327.207031	57.333263
312.704071	1298.680298	6617.236816	4350.584473	57.382191
313.072723	1301.326904	6632.564941	4369.992676	57.560093
313.441345	1301.988525	6630.139160	4373.962402	57.655540
313.809875	1302.650146	6611.061523	4362.383789	57.639351
314.178436	1298.459839	6573.018066	4344.299316	57.745869
314.546967	1304.193970	6535.194824	4322.906250	57.708122
314.915466	1304.635132	6494.283691	4296.881836	57.657982
315.283936	1308.604858	6440.911621	4267.880371	57.659756
315.652374	1309.266602	6398.125977	4246.045898	57.709972
316.020752	1307.943237	6345.084961	4221.014648	57.831833
316.389130	1313.236328	6299.542480	4184.844727	57.589893
316.757416	1313.346680	6259.072266	4161.135742	57.580814
317.125732	1312.574585	6233.378418	4139.302246	57.444427
317.494019	1313.126099	6201.399414	4113.608398	57.289806
317.862274	1315.441895	6169.530762	4095.854492	57.279804
318.230469	1314.338989	6137.441406	4077.107910	57.281990
318.598663	1315.441772	6109.211914	4057.369385	57.197731
318.966797	1315.221069	6076.571289	4038.733154	57.200420
319.334930	1314.449341	6049.113281	4022.633545	57.199078
319.703003	1310.148682	6018.347656	4001.020508	57.152889
320.071045	1307.612305	5975.341309	3975.326904	57.152302
320.439056	1306.178711	5939.722656	3951.287598	57.086086
320.807037	1306.399292	5937.627441	3935.849609	56.776524
321.175049	1305.296631	5958.910156	3936.290283	56.536575
321.542969	1301.878052	5990.778809	3960.329590	56.696690
321.910828	1306.178711	6035.219238	3983.487061	56.614197
322.278717	1304.965820	6093.112305	4009.070313	56.474976
322.646515	1308.053345	6142.183594	4037.190186	56.455589
323.014313	1307.501953	6192.908691	4060.347168	56.348331
323.382111	1304.855469	6229.739746	4085.599365	56.463131
323.749817	1304.745117	6278.259766	4109.969727	56.403263
324.117523	1303.752808	6305.828125	4127.061523	56.442745
324.485199	1301.326782	6320.052734	4135.883789	56.479614
324.852814	1304.193970	6319.501465	4145.587891	56.654430
325.220428	1306.399292	6317.957520	4155.953125	56.859634
325.588013	1305.075928	6324.794434	4156.063477	56.795761
325.955536	1308.384155	6334.498535	4161.797852	56.771763
326.323059	1308.825317	6352.804199	4175.912598	56.841778
326.690552	1309.597168	6376.622070	4183.411621	56.716011
327.058014	1311.030640	6396.030273	4191.240234	56.641293
327.425415	1314.338989	6409.152344	4197.084473	56.581966
327.792816	1317.977905	6423.708984	4201.716309	56.480419
328.160187	1320.955322	6430.545410	4203.811523	56.420502
328.527496	1321.837646	6416.541504	4200.502930	56.503090
328.894775	1322.940430	6410.255859	4201.054688	56.574322
329.262054	1325.697144	6391.839844	4181.646484	56.373249
329.629303	1323.712280	6378.275879	4166.098145	56.234051
329.996490	1321.837646	6364.161621	4160.253906	56.291824
330.363647	1317.977905	6370.558105	4164.554688	56.339069
330.730774	1316.985718	6381.474609	4175.251465	56.437397
331.097839	1316.544434	6412.020020	4183.190918	56.258663
331.464935	1316.103394	6438.044434	4195.651855	56.219868
331.831970	1312.353882	6459.437500	4214.397949	56.382298
332.198975	1311.802490	6487.336426	4223.219727	56.253464
332.565948	1311.582153	6516.007324	4231.379395	56.102207
332.932892	1304.965698	6553.610352	4242.517090	55.967808
333.299744	1305.406860	6581.950195	4262.366211	56.039707
333.666656	1301.878174	6619.553711	4278.686523	55.979500
334.033478	1300.444702	6650.540039	4290.596191	55.889687
334.400299	1300.665283	6674.027344	4305.703125	55.924721
334.767090	1298.570068	6710.527344	4326.875977	55.955837
335.133850	1299.562622	6735.669434	4343.747559	55.999359
335.500549	1296.805786	6758.166016	4360.398926	56.095791
335.867218	1291.622803	6781.985352	4381.571289	56.279499
336.233917	1292.725586	6818.154785	4401.309570	56.259594
336.600525	1292.505005	6834.694824	4410.242188	56.254608
336.967102	1293.938599	6855.757324	4425.019043	56.295982
337.333649	1296.915894	6867.004395	4442.662598	56.475704
337.700195	1294.269287	6866.563965	4446.962891	56.578011
338.066681	1296.254150	6856.970215	4439.243652	56.521313
338.433136	1295.813110	6847.266602	4425.900879	56.383213
338.799591	1296.254272	6825.983398	4416.858398	56.433216
339.165985	1296.584961	6811.758789	4400.427734	56.278240
339.532318	1300.775391	6816.390625	4402.522461	56.235741
339.898651	1300.995972	6828.851074	4410.352051	56.248871
340.264954	1300.444580	6846.163574	4417.740723	56.210857
340.631226	1305.627319	6861.712891	4430.421387	56.240925
340.997467	1305.406860	6901.410645	4445.860352	56.119576
341.363678	1306.840454	6942.652344	4468.465820	56.098846
341.729828	1308.274048	6995.914551	4497.798340	56.078163
342.095947	1305.627563	7056.674316	4534.629395	56.146332
342.462067	1306.178833	7114.677734	4571.350098	56.213684
342.828156	1305.076050	7183.377441	4613.805176	56.287163
343.194183	1304.414551	7254.171875	4655.157227	56.317299
343.560211	1309.597290	7313.718750	4689.231934	56.288578
343.926178	1311.582275	7371.282227	4726.062500	56.347347
344.292114	1310.259155	7404.143066	4745.690918	56.375076
344.658020	1307.502197	7440.643066	4766.312500	56.395420
345.023926	1307.943237	7478.025391	4777.780273	56.236481
345.389771	1309.817871	7515.187500	4791.343750	56.105053
345.755585	1307.061157	7535.036621	4803.584473	56.142216
346.121368	1309.376953	7556.099121	4817.147461	56.153778
346.487122	1309.707642	7582.233398	4830.380859	56.128479
346.852844	1309.597412	7608.037109	4855.412598	56.296726
347.218536	1308.163818	7628.216309	4866.770020	56.306591
347.584167	1309.487061	7650.822266	4891.802246	56.491501
347.949768	1309.487061	7669.127930	4908.673340	56.594177
348.315369	1310.259033	7693.718750	4921.023926	56.564384
348.680939	1312.684937	7708.384766	4930.838379	56.571659
349.046448	1312.464478	7717.426270	4936.242188	56.577663
349.411957	1310.810303	7721.727051	4938.226563	56.581863
349.777435	1313.677490	7716.654785	4935.249023	56.560741
350.142792	1315.772705	7705.848145	4922.347656	56.440258
350.508209	1317.757568	7707.170898	4920.252441	56.382252
350.873566	1320.734985	7710.369629	4921.134766	56.347507
351.238892	1324.153320	7723.822754	4925.875977	56.279823
351.604187	1317.647217	7751.722656	4936.352539	56.242821
351.969482	1319.521973	7817.224609	4975.939941	56.272472
352.334717	1317.647339	7876.330566	5012.991699	56.342777
352.699890	1318.308838	7959.255371	5060.739258	56.353874
353.065063	1317.647217	8043.062500	5120.065918	56.538052
353.430237	1317.095825	8157.305176	5185.457520	56.553265
353.795319	1313.456787	8287.425781	5255.040039	56.518509
354.160370	1313.897827	8413.466797	5331.899902	56.595013
354.525421	1315.441650	8548.000977	5405.121094	56.545395
354.890442	1315.993164	8704.146484	5496.868164	56.588905
355.255402	1310.589600	8870.106445	5588.835449	56.594177
355.620331	1311.912964	9055.035156	5693.483887	56.586617
355.985260	1311.913086	9232.242188	5791.626465	56.559689
356.350098	1310.699951	9388.499023	5886.240234	56.643402
356.714935	1313.015869	9533.837891	5972.252441	56.676037
357.079742	1313.456909	9660.432617	6054.626465	56.801044
357.444519	1311.361694	9805.770508	6134.793945	56.783611
357.809296	1311.030762	9967.540039	6230.400391	56.828556
358.173981	1309.266479	10156.877930	6331.851074	56.767689
358.538605	1307.171265	10367.388672	6439.257324	56.644180
358.903259	1303.091187	10606.127930	6572.465820	56.641445
359.267914	1305.958008	10871.113281	6726.075684	56.665234
359.632477	1302.208740	11147.125000	6884.979004	56.707142
359.997009	1303.091064	11412.661133	7034.508789	56.692993
360.361542	1299.893188	11615.783203	7152.941895	56.738186
360.726013	1303.201416	11769.945313	7234.212891	56.665298
361.090485	1304.304321	11863.676758	7295.192871	56.735275
361.454895	1310.259033	11911.866211	7331.803711	56.798416
361.819244	1311.251343	11933.588867	7347.572754	56.826675
362.183594	1308.935791	11933.038086	7344.926270	56.814117
362.547913	1305.958374	11891.907227	7311.734375	56.733467
362.912201	1310.148682	11832.580078	7279.975586	56.734291
363.276489	1311.692383	11753.514648	7233.550781	56.712883
363.640686	1309.045898	11666.289063	7189.441895	56.775688
364.004883	1308.053467	11603.984375	7144.229980	56.684303
364.369049	1307.502075	11540.247070	7102.436035	56.631275
364.733154	1305.627319	11501.651367	7066.267090	56.498882
365.097198	1305.296631	11440.780273	7038.479004	56.565456
365.461273	1304.855469	11349.916992	6990.620605	56.602592
365.825287	1303.863037	11219.022461	6922.582520	56.667973
366.189270	1305.517212	11049.423828	6837.893066	56.777805
366.553223	1306.509644	10853.798828	6725.636230	56.760891
366.917114	1304.083740	10603.810547	6578.532227	56.716164
367.281006	1309.156250	10322.946289	6416.100586	56.657013
367.644867	1308.715088	10066.894531	6269.548340	56.642284
368.008698	1311.251465	9856.163086	6154.092773	56.675144
368.372498	1305.958374	9704.648438	6069.513672	56.717834
368.736237	1305.075928	9600.442383	6004.783691	56.654617
369.099976	1302.429565	9538.358398	5960.785156	56.561386
369.463654	1301.988525	9494.360352	5932.003906	56.516178
369.827332	1302.208862	9463.153320	5908.847168	56.447369
370.190948	1304.193848	9440.435547	5898.702148	56.469662
370.554535	1302.650146	9416.837891	5877.529785	56.381245
370.918091	1301.106445	9393.791016	5863.304688	56.374348
371.281647	1303.091309	9380.999023	5854.924316	56.349159
371.645111	1305.848267	9366.443359	5850.622559	56.382614
372.008575	1305.186523	9363.686523	5854.812988	56.457485
372.371979	1305.406982	9347.367188	5855.033691	56.573608
372.735382	1308.604858	9362.143555	5860.105957	56.515541
373.098724	1308.384155	9392.909180	5871.684570	56.444878
373.462067	1307.501953	9422.242188	5902.340332	56.623356
373.825348	1305.847900	9491.492188	5937.296387	56.580128
374.188599	1304.855347	9567.139648	5983.500977	56.626537
374.551819	1305.517090	9684.690430	6053.854492	56.668324
374.915009	1303.091187	9826.390625	6136.338867	56.706295
375.278168	1303.532227	9977.463867	6218.381836	56.662304
375.641266	1299.672729	10109.459961	6289.066406	56.634666
376.004395	1302.319214	10216.204102	6340.895020	56.525024
376.367462	1305.296631	10289.535156	6383.459961	56.523022
376.730469	1302.980957	10335.959961	6409.484375	56.531780
377.093475	1300.995972	10366.173828	6427.348145	56.549934
377.456421	1299.672852	10399.367188	6450.395020	56.603245
377.819336	1303.201538	10434.763672	6476.529785	56.653263
378.182281	1304.304199	10477.661133	6499.576660	56.634361
378.545135	1306.619873	10523.974609	6524.829102	56.612869
378.907928	1304.965820	10570.621094	6548.647949	56.592674
379.270752	1303.752808	10610.319336	6577.319336	56.665005
379.633484	1304.304077	10644.283203	6603.122559	56.732655
379.996246	1308.604858	10675.931641	6620.545898	56.707115
380.358948	1305.737671	10694.016602	6622.310059	56.629890
380.721558	1306.509521	10717.394531	6637.527344	56.647358
381.084198	1307.281494	10758.856445	6638.519531	56.405819
381.446747	1309.156006	10778.814453	6649.327148	56.392437
381.809326	1310.589722	10797.670898	6661.897949	56.406265
382.171875	1312.574707	10791.716797	6653.518066	56.344162
382.534363	1312.354126	10755.877930	6638.079102	56.395531
382.896790	1311.361572	10704.710938	6606.762695	56.373940
383.259247	1315.441772	10669.204102	6587.464355	56.362587
383.621613	1316.544556	10660.161133	6586.913086	56.406090
383.983948	1316.765015	10687.950195	6595.734375	56.331924
384.346283	1317.647217	10738.124023	6633.558105	56.429321
384.708588	1315.772705	10823.144531	6679.651855	56.418102
385.070831	1320.073242	10899.012695	6721.775879	56.391449
385.433075	1315.662354	10992.963867	6767.428711	56.335606
385.795258	1316.765015	11075.448242	6811.868164	56.309879
386.157440	1312.133667	11151.536133	6862.042480	56.404938
386.519531	1312.795288	11244.496094	6912.988281	56.387047
386.881622	1310.810303	11316.504883	6952.244629	56.382240
387.243683	1310.700073	11391.710938	6988.635254	56.323074
387.605713	1307.391724	11473.091797	7026.458984	56.258469
387.967682	1309.817749	11555.907227	7085.344727	56.368107
388.329651	1307.832886	11652.283203	7139.378906	56.373669
388.691559	1308.053345	11748.441406	7206.645020	56.497822
389.053467	1303.752686	11868.749023	7279.866211	56.565220
389.415314	1301.326782	11987.513672	7342.059570	56.528423
389.777130	1303.752808	12107.820313	7410.318359	56.520985
390.138885	1299.782959	12230.442383	7481.113281	56.550388
390.500641	1300.665039	12323.181641	7540.550781	56.610355
390.862366	1296.584961	12410.408203	7593.591309	56.659225
391.224060	1296.364502	12484.620117	7638.692871	56.687370
391.585693	1297.246704	12571.514648	7687.653320	56.681347
391.947296	1298.569946	12659.623047	7733.416504	56.639530
392.308868	1304.524658	12724.023438	7776.202148	56.672169
392.670441	1304.304077	12789.525391	7818.325684	56.716549
393.031952	1307.171265	12819.077148	7847.106934	56.810188
393.393433	1306.399414	12846.205078	7867.838379	56.859180
393.754883	1308.494507	12861.644531	7870.926270	56.802097
394.116302	1307.502075	12850.395508	7867.288086	56.829651
394.477692	1311.141113	12853.373047	7864.861816	56.780357
394.839020	1310.589722	12852.491211	7863.979004	56.779114
395.200348	1310.589722	12851.718750	7871.588379	56.848846
395.561646	1308.825317	12834.958008	7856.040039	56.803223
395.922882	1312.574585	12799.230469	7826.708496	56.710445
396.284088	1313.787476	12739.682617	7784.914551	56.635620
396.645264	1316.103271	12662.161133	7738.930664	56.608448
397.006409	1316.985474	12567.545898	7688.315430	56.631222
397.367523	1312.905396	12464.992188	7639.795410	56.732792
397.728577	1317.426514	12368.834961	7578.924805	56.657921
398.089600	1319.080688	12297.267578	7542.204102	56.686260
398.450592	1319.631958	12241.248047	7493.683594	56.530567
398.811584	1319.631958	12182.804688	7451.339355	56.444904
399.172546	1317.536865	12098.225586	7414.287109	56.552509
399.533447	1316.323853	12017.835938	7364.444336	56.516506
399.894318	1310.479492	11962.148438	7324.635254	56.462097
400.255127	1308.935791	11911.533203	7285.268555	56.366688
400.615936	1307.502197	11882.752930	7263.876465	56.323711
400.976685	1307.171387	11886.833008	7268.507324	56.347130
401.337433	1305.517212	11916.826172	7290.011230	56.397324
401.698151	1304.745483	11971.852539	7325.408691	56.441383
402.058807	1301.657715	12056.542969	7375.031250	56.470837
402.419434	1299.672729	12151.487305	7425.315430	56.448097
402.780060	1297.467285	12260.105469	7487.288574	56.462879
403.140594	1296.364624	12359.020508	7547.717773	56.508606
403.501129	1292.394775	12453.856445	7616.417480	56.659447
403.861633	1291.181763	12540.641602	7677.397949	56.769093
404.222076	1289.196777	12626.102539	7718.860352	56.714447
404.582550	1287.983765	12698.000000	7764.292480	56.759853
404.942932	1289.307007	12768.574219	7803.438477	56.746925
405.303284	1293.607666	12843.891602	7840.270020	56.679661
405.663605	1292.174316	12899.579102	7871.037109	56.678158
406.023895	1293.056396	12936.077148	7912.389648	56.852367
406.384125	1290.409912	12989.669922	7947.787109	56.904259
406.744354	1290.850952	13056.826172	7976.017090	56.817780
407.104553	1291.291992	13123.429688	8024.756836	56.908268
407.464691	1296.364624	13183.198242	8066.439941	56.954403
407.824829	1296.916016	13253.110352	8114.959961	57.025200
408.184906	1296.805664	13333.279297	8157.304199	56.997578
408.544922	1298.129028	13397.016602	8189.613770	56.959656
408.904938	1299.562500	13444.985352	8207.588867	56.877609
409.264923	1300.224121	13466.709961	8218.835938	56.866146
409.624847	1298.239258	13452.485352	8211.337891	56.878056
409.984802	1301.437256	13428.113281	8193.694336	56.835499
410.344666	1303.091187	13393.708008	8165.244141	56.756020
410.704529	1305.076050	13355.223633	8136.353516	56.690403
411.064331	1307.612305	13323.023438	8114.079102	56.647804
411.424133	1306.399414	13317.508789	8099.743164	56.558838
411.783875	1306.509644	13312.107422	8106.028320	56.636234
412.143555	1310.369263	13321.479492	8110.991211	56.619431
412.503235	1308.274048	13338.792969	8128.744141	56.693069
412.862885	1304.635010	13348.716797	8141.425781	56.764732
413.222473	1305.406860	13404.625000	8178.366699	56.804993
413.582062	1303.642578	13483.800781	8216.520508	56.755238
413.941559	1302.870605	13553.383789	8265.481445	56.835255
414.301086	1304.855591	13638.513672	8317.861328	56.860710
414.660522	1306.399414	13709.198242	8367.924805	56.934933
415.019958	1303.863037	13795.209961	8417.547852	56.948902
415.379364	1302.429688	13906.364258	8480.182617	56.948509
415.738708	1300.555054	14027.223633	8553.513672	56.990234
416.098053	1300.996216	14169.366211	8638.203125	57.017376
416.457336	1300.996094	14353.409180	8744.726563	57.029533
416.816559	1302.870728	14553.443359	8875.509766	57.149525
417.175812	1306.840454	14794.830078	9016.438477	57.158989
417.535004	1302.319336	15084.958008	9190.227539	57.230755
417.894135	1306.289063	15413.351563	9388.498047	57.291935
418.253265	1303.091187	15806.914063	9608.822266	57.265808
418.612335	1300.775513	16211.945313	9838.629883	57.258114
418.971405	1302.870728	16630.541016	10091.375000	57.337509
419.330414	1304.304077	17066.005859	10342.245117	57.341152
419.689423	1303.642334	17500.701172	10587.161133	57.316078
420.048370	1306.178711	17901.873047	10812.999023	57.284859
420.407257	1306.619751	18312.748047	11054.497070	57.319786
420.766144	1307.281372	18696.716797	11271.733398	57.301758
421.125000	1310.479370	19089.509766	11485.442383	57.230129
421.483795	1311.692383	19479.652344	11715.250000	57.263210
421.842560	1309.817749	19892.181641	11957.629883	57.300636
422.201324	1305.627563	20295.669922	12183.467773	57.281807
422.560028	1306.730225	20666.406250	12394.088867	57.270370
422.918671	1310.259033	21005.935547	12581.110352	57.225006
423.277283	1307.281494	21295.291016	12742.548828	57.210636
423.635925	1306.950806	21519.697266	12873.553711	57.224300
423.994476	1306.178833	21684.664063	12985.479492	57.311920
424.353027	1301.437134	21815.447266	13036.536133	57.205288
424.711487	1299.562500	21918.664063	13085.718750	57.161346
425.069946	1303.422119	21966.853516	13116.814453	57.170525
425.428375	1300.003662	21932.335938	13098.508789	57.184544
425.786743	1302.980957	21839.044922	13046.679688	57.185734
426.145081	1302.650146	21688.634766	12962.761719	57.196705
426.503418	1303.201538	21511.423828	12854.806641	57.162895
426.861725	1303.642578	21295.402344	12727.882813	57.144745
427.219971	1305.958252	21063.716797	12584.968750	57.086491
427.578186	1305.737671	20870.742188	12480.209961	57.114594
427.936371	1306.509521	20683.941406	12361.224609	57.049435
428.294495	1304.524658	20465.931641	12239.924805	57.069927
428.652618	1305.406982	20213.738281	12101.864258	57.098938
429.010712	1308.604858	19949.083984	11944.836914	57.059868
429.368744	1307.502197	19655.095703	11777.001953	57.061977
429.726746	1309.266479	19377.318359	11605.749023	56.987228
430.084717	1308.163818	19099.431641	11429.203125	56.887680
430.442688	1307.060913	18835.882813	11279.561523	56.892021
430.800568	1309.376709	18608.390625	11147.124023	56.868832
431.158417	1306.840454	18434.820313	11046.335938	56.863068
431.516235	1306.068604	18281.431641	10943.782227	56.774712
431.874023	1311.692505	18144.582031	10883.242188	56.862194
432.231812	1313.567261	18015.671875	10820.166992	56.918571
432.589508	1312.574707	17917.308594	10756.428711	56.874462
432.947205	1313.015869	17823.136719	10693.020508	56.813663
433.304840	1313.015747	17743.410156	10657.513672	56.873241
433.662476	1316.213623	17696.322266	10634.687500	56.888962
434.020050	1314.890381	17657.066406	10603.920898	56.840843
434.377594	1312.795166	17623.541016	10583.631836	56.838829
434.735138	1308.825195	17599.613281	10588.151367	56.960571
435.092621	1308.935669	17586.931641	10564.775391	56.861053
435.450043	1307.612305	17582.742188	10562.459961	56.864971
435.807465	1309.707520	17606.451172	10571.942383	56.834877
436.164856	1308.053345	17642.402344	10595.651367	56.859310
436.522156	1303.973267	17711.433594	10631.270508	56.847900
436.879486	1305.737671	17791.822266	10675.379883	56.833645
437.236755	1306.840454	17887.759766	10735.367188	56.863712
437.593994	1306.730225	17994.613281	10803.294922	56.906944
437.951172	1304.635010	18134.107422	10885.558594	56.929436
438.308380	1308.053467	18255.406250	10949.958008	56.893272
438.665497	1306.840454	18378.800781	11013.254883	56.855881
439.022583	1309.266602	18541.562500	11103.346680	56.835606
439.379608	1306.399414	18692.748047	11177.119141	56.772820
439.736633	1303.973389	18803.460938	11236.997070	56.761795
440.093628	1303.311646	18901.603516	11293.787109	56.769577
440.450562	1302.098633	18996.988281	11339.330078	56.723896
440.807495	1300.003540	19074.402344	11390.386719	56.769196
441.164368	1297.687866	19164.937500	11432.290039	56.721668
441.521210	1294.820679	19226.908203	11473.201172	56.760712
441.878021	1295.813232	19294.947266	11517.088867	56.787594
442.234833	1294.820801	19409.521484	11557.669922	56.654812
442.591522	1293.056274	19506.119141	11610.822266	56.650360
442.948242	1294.379517	19605.806641	11669.708008	56.660400
443.304901	1289.748169	19723.906250	11735.208984	56.663616
443.661530	1290.961060	19876.414063	11816.810547	56.634884
444.018127	1295.372070	20038.294922	11902.712891	56.593849
444.374664	1293.717773	20193.007813	11978.250000	56.534042
444.731201	1294.710327	20324.121094	12039.010742	56.461555
445.087738	1294.159058	20459.091797	12123.478516	56.505905
445.444183	1294.048950	20529.777344	12164.279297	56.510624
445.800598	1288.535278	20607.960938	12214.455078	56.554062
446.156982	1294.710449	20632.111328	12233.532227	56.568214
446.513336	1294.379639	20623.511719	12229.672852	56.574150
446.869598	1296.143921	20639.279297	12233.753906	56.545181
447.225891	1296.254272	20655.710938	12244.890625	56.554462
447.582153	1298.569946	20644.904297	12244.889648	56.580845
447.938354	1298.900757	20658.910156	12265.841797	56.647396
448.294495	1300.113892	20673.464844	12259.886719	56.571381
448.650665	1300.775269	20647.441406	12238.825195	56.537132
449.006775	1304.304199	20650.308594	12236.177734	56.507137
449.362823	1304.634888	20653.947266	12231.988281	56.474117
449.718842	1306.068604	20646.886719	12233.531250	56.499485
450.074860	1303.201416	20633.435547	12223.937500	56.495625
450.430817	1299.121338	20615.460938	12206.623047	56.467747
450.786713	1303.091187	20522.720703	12158.213867	56.479359
451.142578	1302.429443	20414.103516	12099.549805	56.494896
451.498444	1299.672852	20259.611328	12014.750000	56.514305
451.854248	1298.790649	20091.447266	11922.231445	56.529743
452.210022	1296.364624	19887.664063	11823.096680	56.621822
452.565765	1297.687866	19641.093750	11679.521484	56.597088
452.921478	1298.790527	19413.382813	11554.803711	56.617416
453.277191	1300.665039	19194.601563	11428.430664	56.598866
453.632813	1293.717896	19016.619141	11330.067383	56.629272
453.988434	1291.953491	18836.214844	11229.167969	56.640827
454.343964	1291.512451	18654.484375	11135.986328	56.698090
454.699524	1291.512451	18502.417969	11047.107422	56.682632
455.054993	1289.858398	18362.921875	10966.498047	56.677818
455.410400	1292.946045	18256.728516	10904.525391	56.659409
455.765839	1292.505005	18209.533203	10878.832031	56.666737
456.121216	1291.843384	18214.494141	10893.830078	56.740440
456.476593	1290.850952	18258.162109	10925.037109	56.780869
456.831909	1292.505005	18381.447266	10999.470703	56.802616
457.187195	1290.299438	18541.011719	11084.049805	56.773018
457.542450	1292.725586	18748.433594	11207.333984	56.798664
457.897644	1294.049072	18936.558594	11319.260742	56.824181
458.252808	1294.710571	19188.201172	11451.807617	56.764202
458.607971	1291.733398	19381.619141	11543.666016	56.672176
458.963013	1290.079224	19505.677734	11608.504883	56.646099
459.318085	1288.755859	19596.982422	11651.179688	56.599823
459.673096	1285.116821	19666.013672	11682.607422	56.566830
460.028076	1286.440063	19745.630859	11731.679688	56.585571
460.383057	1284.786133	19806.941406	11762.886719	56.570629
460.737976	1287.983887	19834.839844	11774.575195	56.541077
461.092865	1292.725586	19855.791016	11773.803711	56.461998
461.447723	1296.916016	19856.453125	11778.986328	56.478081
461.802551	1298.239258	19856.453125	11759.579102	56.370399
462.157288	1297.467407	19858.546875	11762.997070	56.384270
462.512054	1300.224121	19875.419922	11762.004883	56.321243
462.866760	1298.349487	19855.460938	11751.749023	56.330963
463.221405	1300.224121	19807.162109	11720.432617	56.304340
463.576019	1303.091187	19712.216797	11670.478516	56.316570
463.930603	1302.539917	19614.736328	11611.704102	56.296707
464.285156	1299.121338	19475.904297	11520.507813	56.233200
464.639709	1298.128906	19264.953125	11417.623047	56.323219
464.994171	1297.908203	19023.126953	11279.341797	56.312046
465.348633	1296.584961	18747.886719	11133.011719	56.365005
465.703033	1295.923462	18464.816406	10974.108398	56.370464
466.057434	1298.790649	18214.716797	10850.051758	56.463127
466.411774	1299.562622	18037.949219	10752.460938	56.474369
466.766083	1301.106445	17885.222656	10668.541992	56.484379
467.120331	1305.737793	17779.470703	10601.387695	56.427105
467.474548	1301.106445	17689.046875	10542.500977	56.391430
467.828735	1303.752930	17619.908203	10501.148438	56.369869
468.182922	1304.083740	17569.181641	10474.573242	56.381397
468.537048	1303.752808	17523.308594	10456.487305	56.430241
468.891144	1301.878296	17492.320313	10437.189453	56.424099
469.245178	1301.878174	17462.218750	10435.866211	56.521011
469.599213	1302.539917	17443.248047	10414.252930	56.451756
469.953186	1298.680298	17429.464844	10400.137695	56.422905
470.307129	1296.805664	17448.871094	10399.035156	56.353348
470.661041	1296.364624	17470.375000	10414.473633	56.375069
471.014923	1294.159180	17540.398438	10431.787109	56.244572
471.368713	1291.402344	17554.513672	10423.184570	56.150276
471.722504	1291.733154	17527.056641	10418.333984	56.214466
472.076294	1294.159180	17506.875000	10395.397461	56.136421
472.429993	1294.820679	17450.636719	10361.763672	56.121853
472.783722	1298.680298	17445.673828	10347.540039	56.040524
473.137329	1298.900757	17468.169922	10352.392578	55.991966
473.490967	1297.136353	17501.912109	10369.925781	55.988365
473.844543	1299.893188	17586.824219	10405.322266	55.906353
474.198090	1304.304077	17671.072266	10447.998047	55.867439
474.551605	1302.319214	17800.201172	10524.527344	55.899342
474.905060	1308.384155	17940.027344	10597.858398	55.854221
475.258484	1308.935547	18086.910156	10685.964844	55.888924
475.611877	1306.178711	18251.660156	10785.761719	55.941658
475.965240	1308.273926	18447.281250	10898.570313	55.955963
476.318573	1309.266235	18634.302734	11006.416992	55.971889
476.671844	1309.597168	18851.650391	11125.291016	55.955215
477.025116	1311.912964	19080.025391	11248.795898	55.925369
477.378326	1311.582275	19312.589844	11390.826172	55.992664
477.731506	1315.882690	19547.250000	11529.770508	56.023708
478.084656	1316.323975	19827.232422	11685.254883	56.015247
478.437744	1317.867554	20118.792969	11853.200195	56.036247
478.790833	1320.844971	20460.417969	12049.375000	56.054180
479.143890	1321.506836	20876.585938	12273.229492	56.004494
479.496826	1319.191040	21361.125000	12530.273438	55.938126
479.849823	1318.308838	22011.734375	12893.841797	55.938217
480.202728	1315.441650	22825.765625	13330.080078	55.855217
480.555603	1315.110840	23823.623047	13876.702148	55.808186
480.908478	1315.441772	25161.562500	14631.408203	55.841228
481.261292	1316.985596	26807.597656	15608.973633	56.067657
481.614075	1312.574707	28644.851563	16776.871094	56.578880
481.966797	1312.464355	30482.433594	17999.574219	57.206470
482.319489	1309.045898	32214.595703	19082.783203	57.509857
482.672150	1305.296631	33764.917969	20001.904297	57.599586
483.024780	1306.730103	35107.265625	20750.433594	57.524837
483.377350	1302.870605	36224.988281	21373.035156	57.471210
483.729919	1298.018677	37244.351563	21934.320313	57.408642
484.082428	1299.011108	38192.691406	22468.810547	57.380558
484.434937	1295.702881	39178.636719	23046.310547	57.415321
484.787384	1295.151489	40234.167969	23645.861328	57.399265
485.139771	1292.725586	41388.390625	24311.796875	57.410374
485.492157	1292.835815	42569.632813	24978.066406	57.381466
485.844482	1293.387207	43648.093750	25614.005859	57.421291
486.196777	1294.710449	44636.695313	26179.816406	57.415703
486.549072	1296.033813	45404.960938	26617.046875	57.405647
486.901276	1296.695313	45975.839844	26950.398438	57.417625
487.253448	1298.239258	46288.355469	27114.371094	57.381786
487.605591	1302.208984	46303.132813	27133.011719	57.400608
487.957703	1299.672607	46083.031250	27020.203125	57.433231
488.309784	1299.562378	45554.933594	26724.232422	57.449909
488.661835	1296.033691	44797.800781	26246.197266	57.354370
489.013855	1298.349365	44004.054688	25671.128906	57.071480
489.365814	1299.231567	43266.445313	25061.431641	56.620865
489.717743	1303.532349	42634.578125	24607.660156	56.384071
490.069611	1305.186401	42050.355469	24249.273438	56.311188
490.421509	1304.965820	41502.742188	23952.640625	56.340618
490.773315	1302.981079	41014.894531	23668.355469	56.319057
491.125092	1306.619995	40491.542969	23375.691406	56.320316
491.476807	1304.524780	39882.945313	23027.671875	56.309059
491.828522	1307.612305	39140.375000	22589.337891	56.252110
492.180176	1309.707520	38236.800781	22083.298828	56.255692
492.531830	1309.156128	37205.195313	21477.240234	56.184708
492.883423	1306.178711	36045.132813	20810.310547	56.144848
493.234985	1304.745239	34956.851563	20173.486328	56.070015
493.586487	1304.965698	33935.281250	19585.402344	56.022861
493.937988	1305.296509	33071.078125	19099.212891	56.015987
494.289429	1307.391846	32372.283203	18712.597656	56.028542
494.640869	1306.950562	31790.261719	18400.195313	56.074108
494.992218	1303.752808	31337.705078	18161.345703	56.128456
495.343567	1308.053345	30892.642578	17906.394531	56.104687
495.694855	1309.266479	30385.390625	17620.017578	56.096714
496.046112	1310.589722	29761.578125	17263.615234	56.071957
496.397339	1310.479492	28948.871094	16799.587891	56.042004
496.748535	1314.008179	28032.728516	16283.954102	56.027931
497.099670	1311.030884	27087.691406	15746.925781	56.003742
497.450806	1309.817871	26246.529297	15239.230469	55.859058
497.801880	1306.840576	25569.789063	14838.610352	55.771332
498.152924	1311.582275	24976.521484	14513.855469	55.788326
498.503937	1313.897827	24514.037109	14260.783203	55.805210
498.854889	1314.449219	24176.052734	14059.644531	55.749352
499.205841	1312.243774	23892.431641	13899.639648	55.745312
499.556702	1311.140991	23686.552734	13770.400391	55.682816
499.907562	1307.943115	23485.634766	13657.148438	55.683006
500.258362	1310.148560	23315.595703	13574.445313	55.733006
500.609161	1309.707520	23158.457031	13466.708008	55.641628
500.959900	1308.494507	22990.400391	13381.797852	55.683773
501.310608	1307.171265	22819.037109	13269.099609	55.606190
501.661255	1307.171265	22611.285156	13152.321289	55.600296
502.011902	1309.266602	22391.291016	13028.042969	55.586582
502.362488	1311.913086	22170.857422	12898.252930	55.546143
502.713043	1309.487061	21960.457031	12788.090820	55.583843
503.063568	1309.817871	21776.964844	12665.247070	55.481255
503.414063	1310.369263	21571.416016	12562.363281	55.535107
503.764496	1309.487061	21409.425781	12467.748047	55.513901
504.114899	1307.722656	21250.632813	12389.676758	55.568390
504.465271	1306.950684	21128.449219	12320.205078	55.562168
504.815613	1310.699951	21029.423828	12261.098633	55.532997
505.165894	1314.559570	20931.613281	12209.381836	55.537502
505.516174	1314.890381	20892.464844	12171.777344	55.455730
505.866394	1313.125977	20881.437500	12156.890625	55.414921
506.216583	1311.802856	20873.714844	12156.890625	55.439816
506.566711	1311.802734	20907.458984	12178.173828	55.452957
506.916840	1310.810303	20949.033203	12183.465820	55.364761
507.266907	1311.251343	21002.847656	12207.395508	55.333984
507.616882	1312.464355	21083.457031	12236.948242	55.255116
507.966858	1310.589966	21133.298828	12282.270508	55.349049
508.316803	1311.251587	21188.214844	12314.691406	55.357750
508.666748	1311.030884	21251.291016	12360.344727	55.412083
509.016632	1309.707642	21313.376953	12377.658203	55.329597
509.366486	1309.046021	21402.917969	12423.420898	55.312263
509.716309	1306.840454	21490.474609	12456.392578	55.240555
510.066040	1308.715088	21588.066406	12493.995117	55.156006
510.415771	1308.935669	21689.849609	12554.977539	55.179283
510.765503	1303.863037	21797.253906	12608.679688	55.163231
511.115173	1302.870483	21897.271484	12662.932617	55.160927
511.464752	1302.650024	21996.625000	12708.366211	55.116119
511.814270	1304.965820	22078.666016	12752.364258	55.105247
512.163818	1302.980835	22163.134766	12805.404297	55.140644
512.513306	1300.444580	22225.990234	12835.176758	55.122734
512.862793	1297.797974	22280.796875	12870.023438	55.150486
513.212219	1294.931030	22320.494141	12889.764648	55.146366
513.561646	1295.482178	22372.982422	12914.463867	55.125046
513.911011	1294.710449	22402.203125	12936.629883	55.155392
514.260315	1298.128906	22437.380859	12976.658203	55.245708
514.609558	1299.893188	22506.414063	13021.648438	55.274292
514.958801	1300.665283	22600.585938	13073.476563	55.271622
515.308044	1304.193970	22745.705078	13148.022461	55.237843
515.657227	1303.311890	22949.488281	13252.670898	55.203098
516.006348	1307.171387	23197.712891	13368.125000	55.096642
516.355408	1308.935669	23468.322266	13520.520508	55.107956
516.704529	1306.950684	23702.210938	13648.548828	55.108082
517.053467	1310.810181	23927.384766	13760.804688	55.048100
517.402466	1309.817627	24100.404297	13861.154297	55.072464
517.751404	1310.589600	24227.660156	13931.398438	55.071648
518.100281	1315.882813	24354.253906	13993.370117	55.027706
518.449219	1316.764893	24445.224609	14049.940430	55.054146
518.798035	1314.228638	24541.933594	14094.491211	55.021633
519.146851	1311.471924	24637.761719	14131.763672	54.960701
519.495544	1311.582275	24703.267578	14160.323242	54.928669
519.844299	1311.582031	24792.478516	14215.348633	54.954319
520.192932	1310.589600	24892.824219	14269.161133	54.950565
520.541626	1311.912964	24987.878906	14313.270508	54.913734
520.890198	1313.236084	25089.660156	14369.511719	54.912697
521.238770	1315.993042	25211.404297	14411.303711	54.802616
521.587280	1313.897827	25350.234375	14463.242188	54.706112
521.935791	1315.000488	25468.556641	14524.332031	54.688972
522.284180	1312.905273	25587.652344	14583.107422	54.666698
522.632629	1310.810181	25735.308594	14648.940430	54.609638
522.981018	1313.346436	25881.085938	14725.801758	54.593769
523.329346	1309.376709	26049.583984	14831.995117	54.658466
523.677551	1312.795288	26239.253906	14948.221680	54.702621
524.025818	1310.810303	26502.146484	15086.060547	54.682491
524.374023	1305.848267	26813.333984	15259.960938	54.705948
524.722229	1304.304443	27208.441406	15480.835938	54.726902
525.070374	1302.760376	27733.115234	15770.193359	54.737942
525.418457	1301.878174	28432.574219	16150.852539	54.731274
525.766541	1303.532227	29419.845703	16683.912109	54.702694
526.114563	1305.406860	30673.535156	17393.074219	54.779339
526.462585	1304.414429	32059.880859	18224.640625	55.015347
526.810547	1302.319214	33429.792969	19040.328125	55.211342
527.158447	1303.311523	34649.191406	19732.398438	55.266457
527.506348	1306.509521	35670.535156	20312.871094	55.308887
527.854065	1305.406860	36507.835938	20773.808594	55.304142
528.201904	1305.296631	37179.289063	21149.841797	55.317360
528.549622	1304.965820	37700.105469	21436.109375	55.312725
528.897339	1304.965820	38087.820313	21644.857422	55.297203
529.245056	1305.848022	38392.945313	21795.378906	55.247059
529.592712	1304.965942	38621.097656	21925.390625	55.258736
529.940369	1302.209106	38808.785156	22043.490234	55.300388
530.287903	1298.239258	39002.093750	22151.007813	55.306728
530.635437	1300.003662	39242.042969	22268.777344	55.265278
530.982910	1296.254272	39534.929688	22420.292969	55.242599
531.330383	1298.349487	39778.742188	22565.191406	55.266693
531.677795	1296.364624	39893.535156	22642.931641	55.306038
532.025208	1296.805664	39896.734375	22640.837891	55.295517
532.372498	1296.144043	39700.453125	22531.667969	55.294640
532.719788	1294.379639	39259.023438	22296.455078	55.320091
533.067078	1295.261841	38522.738281	21889.769531	55.320721
533.414307	1297.577637	37499.183594	21290.218750	55.225842
533.761536	1299.782959	36364.812500	20597.156250	55.033096
534.108643	1298.790649	35301.566406	19946.767578	54.842510
534.455811	1298.349487	34402.292969	19405.880859	54.699013
534.802856	1298.459717	33658.390625	18970.521484	54.610939
535.149902	1300.996094	33076.042969	18639.154297	54.565327
535.496887	1300.665161	32572.203125	18343.625000	54.499908
535.843811	1298.790527	32153.277344	18124.072266	54.531071
536.190796	1300.113892	31807.683594	17934.292969	54.524761
536.537659	1300.885742	31473.228516	17773.183594	54.594025
536.884460	1301.216553	31187.402344	17612.626953	54.578426
537.231323	1303.973267	30885.589844	17445.234375	54.565174
537.578064	1306.950806	30573.738281	17263.394531	54.520653
537.924805	1308.274048	30209.177734	17072.621094	54.546207
538.271423	1307.502197	29892.691406	16875.011719	54.460056
538.618164	1308.935547	29722.433594	16759.447266	54.377365
538.964783	1312.795288	29751.984375	16766.724609	54.340260
539.311279	1312.354126	29938.345703	16871.152344	54.351994
539.657776	1313.787720	30217.447266	17009.765625	54.304462
540.004333	1312.023193	30474.714844	17149.482422	54.307262
540.350769	1311.030762	30722.937500	17262.181641	54.233650
540.697144	1310.920410	30910.619141	17378.410156	54.282612
541.043518	1307.501953	31016.039063	17424.615234	54.250782
541.389893	1307.832764	30991.449219	17426.820313	54.302639
541.736145	1312.243652	30870.919922	17377.859375	54.351608
542.082458	1311.030762	30728.115234	17293.496094	54.330555
542.428711	1313.677490	30558.958984	17190.285156	54.287758
542.774902	1311.030884	30414.613281	17114.859375	54.302002
543.121033	1314.559570	30309.851563	17035.130859	54.217667
543.467102	1315.772705	30228.580078	16994.441406	54.227421
543.813171	1314.449341	30173.115234	16946.693359	54.168285
544.159180	1314.118530	30124.265625	16913.609375	54.145824
544.505127	1316.103394	30064.390625	16861.121094	54.072849
544.851135	1315.882813	29946.505859	16794.515625	54.063206
545.197021	1314.228760	29733.347656	16679.941406	54.068222
545.542908	1312.574585	29327.765625	16479.134766	54.136917
545.888733	1313.125977	28734.279297	16147.985352	54.100060
546.234558	1312.574585	27955.421875	15727.736328	54.105186
546.580322	1314.449219	27086.472656	15232.392578	54.004078
546.926025	1314.449219	26190.398438	14743.116211	53.982533
547.271667	1315.331421	25366.664063	14291.439453	53.951725
547.617371	1312.464233	24569.062500	13879.790039	54.037682
547.962952	1309.376709	23836.634766	13486.888672	54.056786
548.308533	1316.875244	23176.984375	13138.095703	54.076675
548.654053	1318.749878	22597.058594	12801.653320	53.965302
548.999573	1316.985596	22105.242188	12525.090820	53.915565
549.344971	1317.426514	21676.394531	12295.393555	53.922016
549.690430	1313.456787	21303.451172	12098.778320	53.953598
550.035767	1313.897827	20995.458984	11920.908203	53.893139
550.381104	1314.338867	20720.439453	11778.875977	53.923954
550.726440	1308.715088	20440.898438	11638.718750	53.992813
551.071655	1308.053345	20193.007813	11512.346680	54.033981
551.416931	1305.737671	19905.525391	11358.295898	54.046631
551.762085	1305.958130	19601.064453	11198.070313	54.069721
552.107178	1303.752686	19293.402344	11029.462891	54.062805
552.452332	1302.539795	18985.742188	10838.470703	53.926491
552.797424	1304.304077	18713.041016	10680.340820	53.858231
553.142395	1299.011108	18451.914063	10549.226563	53.927994
553.487366	1300.113770	18255.408203	10427.264648	53.830681
553.832336	1301.106323	18065.296875	10322.727539	53.814831
554.177185	1299.782959	17916.652344	10244.544922	53.829403
554.522095	1301.326782	17807.810547	10178.381836	53.779198
554.866943	1304.745361	17704.042969	10124.789063	53.783062
555.211731	1306.068604	17624.757813	10066.785156	53.685173
555.556396	1300.885742	17547.566406	10019.367188	53.663155
555.901123	1302.760376	17476.771484	9980.881836	53.654724
556.245789	1303.201538	17389.656250	9943.388672	53.710949
556.590454	1305.406860	17291.294922	9880.864258	53.643921
556.934998	1303.642700	17206.494141	9831.020508	53.621693
557.279541	1307.722656	17093.353516	9776.766602	53.650337
557.624023	1306.620117	16953.750000	9706.854492	53.685463
557.968567	1311.361694	16822.525391	9621.283203	53.573811
558.312988	1313.567017	16687.994141	9548.392578	53.561836
558.657349	1316.213745	16581.359375	9491.272461	53.553753
559.001770	1315.000732	16496.228516	9442.532227	53.536720
559.346069	1317.757568	16420.470703	9396.438477	53.491585
559.690308	1318.970459	16366.767578	9374.273438	53.531441
560.034485	1318.529541	16310.417969	9346.154297	53.546455
560.378723	1321.727173	16279.982422	9317.482422	53.453796
560.722900	1318.970459	16237.306641	9307.779297	53.550266
561.067017	1315.662354	16214.701172	9291.017578	53.529327
561.411072	1315.110962	16186.361328	9270.617188	53.495880
561.755127	1317.206055	16158.242188	9247.239258	53.433151
562.099182	1316.213745	16149.860352	9239.078125	53.411442
562.443115	1316.103394	16154.382813	9249.444336	53.465370
562.787048	1318.198486	16166.845703	9254.185547	53.445858
563.130920	1317.536865	16204.117188	9277.123047	53.468197
563.474792	1314.559570	16275.242188	9300.169922	53.377312
563.818604	1309.817749	16366.658203	9358.834961	53.457542
564.162354	1314.890259	16455.423828	9426.101563	53.572826
564.506042	1312.133545	16567.021484	9478.480469	53.532658
564.849731	1311.582153	16664.722656	9524.575195	53.493896
565.193420	1309.376709	16735.189453	9564.824219	53.517097
565.537048	1304.304077	16789.001953	9589.304688	53.504440
565.880615	1304.965820	16818.666016	9606.397461	53.510326
566.224121	1303.201416	16827.597656	9623.708984	53.596336
566.567627	1303.642578	16828.146484	9638.044922	53.685467
566.911072	1306.509766	16823.736328	9647.088867	53.750450
567.254517	1305.848022	16856.265625	9649.955078	53.658413
567.597839	1307.612305	16881.408203	9672.670898	53.712395
567.941223	1305.847900	16914.271484	9681.492188	53.661053
568.284485	1305.186401	16938.753906	9712.589844	53.777893
568.627808	1306.289063	17000.615234	9744.237305	53.764324
568.970947	1304.855591	17070.197266	9798.051758	53.872578
569.314148	1310.589600	17146.837891	9838.189453	53.848610
569.657288	1314.449341	17232.078125	9878.438477	53.801914
570.000366	1315.772461	17313.900391	9931.370117	53.853786
570.343445	1316.213745	17378.958984	9960.922852	53.818378
570.686462	1319.301392	17399.359375	9976.581055	53.838608
571.029419	1319.521851	17410.937500	9961.804688	53.707413
571.372314	1314.559570	17389.546875	9935.781250	53.631283
571.715210	1314.780029	17336.173828	9913.836914	53.672340
572.058105	1315.441650	17284.566406	9886.158203	53.670547
572.400879	1318.308716	17266.921875	9880.314453	53.684956
572.743713	1316.985474	17250.712891	9869.286133	53.674198
573.086426	1315.882813	17256.779297	9881.966797	53.736526
573.429077	1315.993042	17280.599609	9884.393555	53.671230
573.771790	1313.456787	17288.978516	9882.739258	53.640079
574.114441	1308.825317	17280.158203	9880.204102	53.667274
574.457031	1309.376709	17246.634766	9870.720703	53.719051
574.799561	1306.399414	17192.378906	9831.022461	53.661301
575.142029	1312.684937	17144.080078	9799.595703	53.608105
575.484436	1316.103271	17057.294922	9750.745117	53.583248
575.826904	1311.471802	16940.076172	9694.173828	53.636921
576.169250	1314.890381	16794.847656	9605.073242	53.554298
576.511597	1309.266357	16627.013672	9512.444336	53.553421
576.853943	1303.863037	16422.126953	9404.818359	53.583900
577.196167	1302.980835	16207.315430	9280.210938	53.522884
577.538391	1300.885742	15981.145508	9148.435547	53.456478
577.880554	1295.923462	15774.605469	9028.127930	53.404064
578.222717	1297.798096	15546.340820	8916.973633	53.473370
578.564819	1298.459717	15335.276367	8807.141602	53.492767
578.906860	1297.798096	15149.357422	8696.868164	53.416874
579.248901	1294.489990	14957.482422	8587.257813	53.376064
579.590942	1292.505005	14756.014648	8475.772461	53.353603
579.932861	1296.474854	14573.073242	8369.690430	53.275814
580.274780	1295.813232	14376.127930	8241.222656	53.098183
580.616638	1297.577515	14177.304688	8130.177734	53.049259
580.958496	1300.665161	13971.095703	8020.566406	53.036095
581.300232	1301.988525	13802.267578	7924.738770	52.980816
581.641968	1302.760376	13638.404297	7831.558105	52.926285
581.983704	1300.885620	13495.599609	7752.051270	52.901329
582.325317	1296.915771	13360.736328	7673.868164	52.860138
582.666992	1296.474731	13243.408203	7607.485352	52.825359
583.008606	1298.018555	13132.584961	7537.241211	52.720333
583.350098	1295.482300	13037.419922	7482.545898	52.692017
583.691589	1294.710449	12956.919922	7442.518066	52.715637
584.033081	1295.813232	12896.602539	7402.047852	52.636372
584.374512	1293.276978	12835.179688	7366.980469	52.623074
584.715881	1293.607666	12787.429688	7342.721191	52.629257
585.057190	1291.512451	12741.335938	7314.822266	52.606136
585.398499	1289.086548	12694.800781	7298.943359	52.691635
585.739807	1291.071655	12657.087891	7280.527344	52.696171
586.081055	1291.622803	12628.416992	7266.412109	52.702633
586.422180	1291.622803	12602.281250	7264.758789	52.809799
586.763367	1289.637939	12593.017578	7257.701660	52.798927
587.104431	1289.196777	12593.017578	7254.393066	52.771507
587.445496	1290.189331	12597.098633	7263.766602	52.831211
587.786499	1287.211914	12592.797852	7272.146484	52.937855
588.127502	1283.021484	12621.468750	7268.838379	52.792210
588.468445	1284.234619	12627.754883	7263.324219	52.709297
588.809326	1284.124390	12634.040039	7273.800781	52.772869
589.150208	1287.322266	12639.332031	7277.880859	52.770908
589.491028	1290.740723	12626.099609	7291.664551	52.939865
589.831848	1290.299683	12624.998047	7286.261230	52.899170
590.172546	1291.291992	12613.971680	7291.444336	52.992336
590.513245	1289.307251	12605.810547	7294.752441	53.068031
590.853943	1289.307251	12610.994141	7285.709961	52.963867
591.194458	1290.189331	12623.235352	7282.401855	52.873802
591.535095	1288.645508	12624.227539	7288.908691	52.932995
591.875610	1289.527588	12644.406250	7301.148926	52.943066
592.216125	1291.622803	12648.376953	7317.910156	53.063465
592.556580	1291.071411	12667.343750	7326.511719	53.052883
592.897034	1287.763184	12700.867188	7334.340820	52.979259
593.237366	1287.652954	12718.510742	7344.596191	52.987656
593.577698	1288.535156	12771.110352	7358.380371	52.861359
593.918030	1289.307007	12819.409180	7385.727051	52.873943
594.258301	1292.284302	12873.332031	7415.610840	52.873684
594.598511	1292.063843	12952.838867	7449.685059	52.806274
594.938721	1294.379639	13037.417969	7497.433105	52.823246
595.278809	1299.231567	13118.026367	7552.569336	52.910114
595.618958	1298.790527	13172.391602	7592.047852	53.002094
595.958984	1299.011108	13228.298828	7606.272461	52.872066
596.299011	1302.098633	13252.007813	7613.770996	52.817745
596.638977	1299.011108	13278.141602	7607.154785	52.659443
596.978943	1297.908447	13289.832031	7602.522949	52.573833
597.318848	1300.665161	13285.533203	7588.849609	52.467701
597.658630	1300.113770	13271.526367	7568.007324	52.357178
597.998474	1298.128662	13238.885742	7557.641602	52.421406
598.338257	1297.356934	13184.189453	7543.636719	52.547894
598.677979	1298.680298	13151.439453	7519.157227	52.481258
599.017700	1297.026245	13096.192383	7491.037109	52.495327
599.357361	1300.444580	13052.415039	7458.617676	52.401192
599.696960	1305.737671	13013.156250	7429.726074	52.308613
600.036560	1307.171265	12965.298828	7406.017090	52.314110
600.376038	1303.973389	12926.591797	7391.020020	52.372425
600.715576	1303.422119	12884.029297	7381.866699	52.488129
601.055054	1302.870850	12840.801758	7363.340820	52.526489
601.394409	1301.878174	12806.395508	7341.286621	52.495972
601.733826	1303.752930	12760.414063	7333.568359	52.631523
602.073120	1301.878296	12756.113281	7320.777344	52.547367
602.412415	1297.577515	12743.873047	7311.845215	52.543354
602.751587	1296.915894	12771.220703	7321.438965	52.504471
603.090820	1298.459839	12801.544922	7341.177246	52.531277
603.429993	1293.166748	12848.080078	7378.779785	52.666889
603.769104	1292.063965	12883.807617	7397.967285	52.674587
604.108154	1293.828369	12909.392578	7421.896484	52.757389
604.447205	1296.144165	12946.553711	7449.023926	52.812565
604.786194	1298.349487	12976.877930	7466.777344	52.818535
605.125183	1302.319336	13007.534180	7480.009766	52.777248
605.464111	1300.665039	13028.486328	7485.523926	52.736641
605.802979	1299.562378	13050.870117	7493.464355	52.708191
606.141846	1300.113770	13074.911133	7511.769531	52.753826
606.480652	1297.908325	13114.829102	7526.435059	52.708542
606.819336	1295.702881	13167.648438	7557.752930	52.746620
607.158020	1295.261719	13228.960938	7589.621094	52.744411
607.496765	1300.003296	13292.807617	7620.827148	52.705135
607.835388	1301.216431	13331.182617	7633.619629	52.638580
608.173950	1305.076050	13348.386719	7631.634766	52.531723
608.512512	1303.201416	13325.559570	7624.467285	52.579247
608.851013	1301.216431	13280.789063	7593.039551	52.521267
609.189514	1304.965820	13184.080078	7539.557129	52.483639
609.527893	1305.186279	13073.698242	7479.899414	52.468086
609.866333	1304.414673	12945.449219	7403.811523	52.395664
610.204712	1303.091309	12806.505859	7343.051270	52.505802
610.542969	1304.304321	12678.920898	7269.500977	52.443058
610.881226	1305.627563	12564.238281	7211.606934	52.457447
611.219482	1303.532349	12470.395508	7160.770996	52.451962
611.557678	1301.547363	12383.722656	7110.265625	52.414963
611.895813	1299.011108	12310.279297	7073.103516	52.438030
612.233948	1298.018555	12237.611328	7028.333496	52.381428
612.571960	1302.098633	12167.256836	6998.008301	52.423622
612.910034	1306.619873	12098.998047	6961.839355	52.400127
613.247986	1306.730103	12027.210938	6916.738281	52.329823
613.585938	1308.935547	11942.411133	6867.666016	52.275764
613.923828	1305.737671	11822.654297	6804.370605	52.283695
614.261658	1308.715088	11693.414063	6742.507324	52.324982
614.599487	1306.730103	11548.295898	6666.088379	52.329483
614.937317	1307.943115	11424.239258	6599.813965	52.310364
615.275024	1307.612305	11309.556641	6546.772949	52.381420
615.612732	1306.399414	11213.178711	6488.218750	52.305790
615.950378	1305.627441	11119.227539	6430.877441	52.225994
616.288025	1302.429443	11032.443359	6390.848145	52.296112
616.625549	1303.421997	10971.901367	6353.134766	52.228615
616.963074	1304.414307	10919.523438	6326.338379	52.229504
617.300537	1305.517212	10871.445313	6297.005859	52.179871
617.638000	1305.296631	10823.035156	6267.453125	52.135876
617.975464	1309.266357	10790.614258	6248.927246	52.098724
618.312744	1310.369141	10753.563477	6233.268066	52.131714
618.650024	1309.486938	10720.259766	6211.434082	52.088680
618.987305	1308.274048	10683.428711	6193.018555	52.103085
619.324585	1305.958374	10658.507813	6171.405273	52.022678
619.661743	1302.429565	10644.723633	6159.385254	51.988895
619.998901	1299.783081	10616.824219	6148.909668	52.045776
620.336060	1298.018799	10589.255859	6140.308594	52.116741
620.673096	1295.151611	10567.752930	6133.582031	52.179863
621.010193	1298.459717	10548.125000	6130.384277	52.238918
621.347168	1296.254272	10527.833984	6108.991211	52.133404
621.684082	1297.908447	10493.208984	6096.861816	52.189190
622.020996	1297.356934	10457.591797	6076.019531	52.167469
622.357849	1298.128906	10433.993164	6055.839844	52.077293
622.694641	1299.562500	10412.929688	6050.546875	52.132042
623.031433	1303.863037	10391.095703	6044.812500	52.171543
623.368164	1305.296631	10386.905273	6039.629883	52.130997
623.704895	1306.619873	10376.759766	6043.268555	52.222443
624.041504	1307.832886	10383.927734	6055.398926	52.308464
624.378174	1305.737671	10402.343750	6059.258301	52.255978
624.714783	1311.692505	10445.901367	6074.145508	52.138649
625.051331	1308.715210	10478.101563	6088.701172	52.129833
625.387756	1309.156250	10514.711914	6097.633789	52.017258
625.724304	1309.486938	10534.119141	6110.976563	52.050747
626.060669	1310.589600	10552.314453	6118.034180	52.018909
626.397034	1310.369141	10560.364258	6132.369141	52.129757
626.733337	1310.369141	10564.333984	6130.274414	52.084759
627.069641	1307.502075	10570.950195	6129.612793	52.055248
627.405884	1309.486938	10560.474609	6125.091309	52.055035
627.742126	1308.935669	10550.439453	6123.436523	52.096508
628.078308	1308.053467	10538.639648	6107.778320	51.998051
628.414429	1304.524780	10513.057617	6103.698242	52.116589
628.750488	1304.414551	10493.319336	6086.164063	52.038300
629.086548	1301.767944	10460.126953	6075.247559	52.121555
629.422546	1299.121338	10419.546875	6052.641602	52.119503
629.758545	1297.798096	10365.293945	6024.411621	52.126995
630.094421	1294.710571	10318.648438	5989.786621	52.029129
630.430298	1293.497437	10264.283203	5954.278320	51.955097
630.766113	1293.276855	10200.986328	5912.595215	51.857536
631.101929	1292.615479	10124.567383	5865.067871	51.771706
631.437622	1293.166626	10043.185547	5823.495117	51.775074
631.773376	1288.865967	9950.115234	5777.180664	51.820637
632.109070	1292.725586	9856.714844	5728.770996	51.798820
632.444641	1292.946167	9763.423828	5684.772461	51.848625
632.780273	1293.387329	9687.446289	5642.316895	51.809616
633.115784	1294.489990	9618.195313	5607.911621	51.820934
633.451294	1297.246826	9549.165039	5568.213379	51.757263
633.786682	1299.121338	9481.458008	5536.786133	51.790401
634.122131	1302.650146	9403.604492	5495.985352	51.763470
634.457458	1301.106323	9351.556641	5460.918457	51.671795
634.792847	1303.311768	9290.575195	5423.425781	51.583549
635.128113	1303.201538	9227.279297	5391.777832	51.596870
635.463318	1304.414429	9176.002930	5357.704102	51.492653
635.798584	1300.775513	9127.813477	5329.805176	51.475792
636.133728	1301.657715	9074.221680	5297.715820	51.412354
636.468872	1304.965820	9012.358398	5269.927246	51.443615
636.803955	1305.737793	8963.067383	5241.035645	51.392563
637.139038	1303.201416	8913.554688	5220.635254	51.475056
637.473999	1305.406860	8849.266602	5191.413086	51.512177
637.808899	1305.958374	8783.101563	5163.624023	51.592773
638.143799	1307.391846	8715.173828	5127.675781	51.571224
638.478638	1309.156128	8654.302734	5091.616211	51.496044
638.813538	1309.156006	8589.573242	5063.166016	51.563118
639.148315	1305.516968	8517.233398	5025.342773	51.580311
639.483032	1306.509521	8454.048828	4995.899414	51.617626
639.817749	1303.421875	8386.782227	4960.722656	51.632286
640.152405	1302.098633	8323.044922	4923.339844	51.577679
640.487000	1301.547363	8252.250000	4891.582031	51.649952
640.821594	1301.326782	8187.410156	4853.207031	51.580559
641.156128	1299.121338	8138.338379	4824.756836	51.550282
641.490662	1297.687744	8078.791504	4800.386719	51.653820
641.825134	1298.569946	8018.140625	4774.251953	51.724762
642.159546	1298.459717	7977.560059	4749.550781	51.669998
642.493896	1302.760376	7925.291016	4732.238281	51.785007
642.828186	1301.216553	7883.938477	4709.411621	51.774860
643.162537	1299.562622	7849.974609	4688.680176	51.738998
643.496765	1293.718140	7814.246094	4670.043945	51.779945
643.830994	1292.505005	7780.061523	4651.628906	51.777954
644.165100	1293.387329	7751.059570	4632.882324	51.713604
644.499268	1292.615479	7734.409180	4619.979980	51.652763
644.833313	1291.071655	7720.955566	4605.976074	51.554653
645.167358	1288.535278	7705.075684	4594.618164	51.524384
645.501343	1287.652954	7682.139648	4595.500000	51.729675
645.835327	1287.873535	7662.069824	4578.959473	51.631386
646.169189	1289.638062	7648.727539	4573.224609	51.636112
646.503052	1289.417358	7636.818359	4563.961914	51.588745
646.836914	1293.387207	7626.342285	4556.132324	51.520103
647.170654	1295.041260	7611.676270	4550.839355	51.543240
647.504395	1296.584961	7607.376465	4549.405762	51.543785
647.838074	1296.695435	7601.641602	4546.208008	51.539101
648.171753	1299.562500	7598.995605	4545.986816	51.535183
648.505371	1300.665283	7600.097656	4541.135742	51.440670
648.838928	1301.988525	7603.184570	4538.599121	51.365017
649.172424	1304.635010	7610.131836	4533.196289	51.202328
649.505920	1302.870728	7606.382324	4523.933105	51.099491
649.839294	1308.274048	7598.001465	4520.514648	51.071220
650.172729	1310.920532	7596.127441	4525.587402	51.146557
650.506104	1314.890381	7600.207520	4516.435059	50.936882
650.839355	1317.536987	7584.989746	4519.522461	51.089104
651.172668	1318.308838	7565.913086	4517.096191	51.200222
651.505859	1316.875244	7542.977051	4514.339355	51.355797
651.839111	1319.080688	7527.979980	4514.118652	51.459007
652.172241	1321.175903	7515.959961	4508.605469	51.453442
652.505371	1319.521729	7502.616211	4494.710449	51.352741
652.838379	1320.845093	7475.930176	4487.653320	51.450275
653.171387	1319.632202	7461.924805	4477.618652	51.413807
653.504333	1318.088379	7438.988281	4468.135254	51.463787
653.837280	1318.970459	7418.918945	4460.857422	51.506783
654.170227	1319.080811	7399.731934	4449.278809	51.478004
654.503052	1315.662354	7379.772461	4436.377441	51.462044
654.835876	1315.441895	7365.657715	4429.208984	51.465389
655.168579	1312.243896	7348.234375	4424.356934	51.559280
655.501343	1312.574707	7332.906250	4420.387207	51.621948
655.833984	1310.920532	7323.863770	4422.923340	51.755070
656.166626	1312.464233	7319.673340	4434.501953	51.971516
656.499268	1313.456787	7342.720215	4448.064941	51.989899
656.831787	1312.684937	7376.904785	4473.538086	52.122997
657.164307	1311.912964	7422.889160	4489.527344	51.998474
657.496765	1311.140991	7469.424316	4520.624023	52.116520
657.829224	1311.361572	7518.275391	4543.010254	52.065304
658.161621	1315.110718	7566.463379	4565.946777	52.002121
658.493958	1317.095703	7605.831055	4576.753418	51.833279
658.826233	1310.920410	7635.494629	4590.537598	51.855145
659.158508	1310.479370	7661.739746	4607.409180	51.909851
659.490723	1311.140991	7680.155273	4613.033203	51.843063
659.822876	1310.479492	7699.012695	4616.341309	51.746803
660.154968	1306.399414	7700.555664	4618.877441	51.804771
660.487061	1307.943115	7699.343750	4611.930664	51.694267
660.819153	1303.642700	7693.719727	4615.349121	51.825768
661.151123	1305.406982	7679.934570	4613.143555	51.889912
661.483093	1308.935791	7668.576660	4603.329102	51.801563
661.815002	1310.479614	7652.807129	4594.176758	51.774323
662.146851	1312.354126	7623.915039	4575.871094	51.706970
662.478760	1314.008057	7595.354980	4557.676758	51.639702
662.810486	1311.802612	7558.523926	4538.709473	51.657608
663.142212	1309.597168	7505.482910	4506.950684	51.604462
663.473938	1306.730103	7453.654785	4469.788574	51.457577
663.805603	1306.840332	7388.263184	4426.341309	51.295578
664.137207	1307.060913	7295.854980	4391.385254	51.501591
664.468689	1306.730103	7208.187500	4345.291016	51.488316
664.800293	1304.965820	7131.107910	4298.645996	51.383575
665.131775	1304.083496	7048.623535	4256.301270	51.391716
665.463196	1302.539795	6980.255859	4225.535645	51.481899
665.794617	1304.965820	6923.795410	4187.491211	51.301170
666.125916	1309.156250	6865.902344	4157.497559	51.259159
666.457275	1308.715210	6822.564941	4134.339844	51.245949
666.788574	1305.627563	6776.801270	4119.453125	51.430019
667.119812	1306.730225	6747.910645	4104.786621	51.423698
667.450928	1307.612305	6727.731445	4094.862305	51.424145
667.782104	1311.582153	6713.063965	4081.409180	51.279022
668.113159	1308.384155	6691.230469	4071.925293	51.339771
668.444214	1304.414307	6669.286621	4067.184082	51.497402
668.775208	1303.311523	6650.980469	4055.936035	51.473354
669.106201	1304.414307	6636.645996	4051.414551	51.516899
669.437134	1303.311646	6629.367676	4042.482422	51.429630
669.768005	1302.870605	6622.200195	4029.581055	51.260414
670.098877	1300.444702	6610.951660	4022.192627	51.252132
670.429688	1303.201416	6591.874023	4018.112793	51.334454
670.760437	1299.893311	6567.504395	4010.283203	51.453869
671.091187	1298.349487	6559.564941	3995.727295	51.269104
671.421814	1296.033813	6542.692871	3988.339355	51.314667
671.752441	1295.261963	6521.189941	3980.730225	51.387398
672.083008	1292.946167	6507.185059	3971.467529	51.369370
672.413574	1293.607788	6493.731934	3959.778320	51.271286
672.744080	1296.033813	6466.936035	3950.845947	51.341370
673.074524	1293.828369	6440.581055	3934.194580	51.301594
673.404968	1297.467407	6416.541504	3918.094971	51.193386
673.735352	1301.437256	6396.582520	3903.649170	51.072376
674.065613	1303.752930	6375.410156	3889.865234	50.991467
674.395935	1302.429688	6351.700684	3873.544922	50.920525
674.726196	1301.657837	6320.494141	3852.703857	50.829430
675.056335	1304.414551	6304.504395	3839.029785	50.691395
675.386536	1304.745361	6292.815430	3827.561279	50.576992
675.716614	1306.840454	6281.346680	3818.960449	50.499889
676.046692	1308.274048	6279.913086	3814.990723	50.420330
676.376770	1310.259033	6268.334961	3820.063232	50.620525
676.706726	1312.023315	6257.638184	3821.827637	50.748074
677.036621	1310.038452	6262.820801	3817.085449	50.618961
677.366516	1310.258911	6260.616211	3820.393555	50.706131
677.696411	1314.338989	6274.068359	3824.032715	50.601425
678.026184	1313.787720	6291.381836	3832.744385	50.605904
678.355957	1312.464355	6305.166016	3845.977051	50.744324
678.685669	1312.464355	6330.639160	3851.931152	50.605389
679.015320	1309.817749	6346.187500	3864.833008	50.731289
679.344971	1306.730103	6362.838379	3876.963135	50.834213
679.674561	1305.406860	6371.991211	3888.762695	50.988117
680.004150	1301.547241	6394.928711	3904.421387	51.103065
680.333618	1299.231689	6410.145996	3921.844482	51.313969
680.663086	1299.672729	6424.701660	3931.217529	51.346928
680.992493	1298.680298	6430.987305	3933.423340	51.336430
681.321899	1298.569824	6429.002930	3945.774170	51.598068
681.651184	1298.128784	6429.994629	3950.074707	51.676056
681.980530	1296.585083	6419.849609	3951.397949	51.818775
682.309753	1295.372070	6412.682129	3948.751465	51.851059
682.638977	1290.850952	6387.650391	3941.914551	52.014278
682.968079	1288.314697	6361.735840	3929.232422	52.053986
683.297241	1288.976318	6340.563965	3909.052734	51.866394
683.626343	1288.865845	6318.619629	3896.701904	51.848183
683.955383	1293.056396	6279.803711	3887.439453	52.025558
684.284363	1294.048950	6252.235352	3870.898438	51.971615
684.613281	1292.284546	6209.890137	3852.372314	52.059643
684.942139	1296.144043	6166.111816	3830.097412	52.032242
685.271057	1299.231567	6128.619629	3807.932617	51.946564
685.599792	1301.657593	6088.370117	3789.737793	51.978893
685.928589	1305.737671	6056.721191	3769.006592	51.847561
686.257324	1310.810181	6019.118164	3752.355225	51.856098
686.585999	1310.699951	5994.527344	3735.814697	51.776352
686.914612	1310.810303	5948.323242	3709.790283	51.729885
687.243164	1310.369141	5912.043457	3688.066650	51.670269
687.571777	1307.281494	5879.072754	3665.020508	51.571453
687.900269	1308.825317	5843.344727	3654.103027	51.720535
688.228699	1309.707520	5811.365234	3632.489502	51.598370
688.557129	1305.186401	5783.466309	3617.161377	51.626411
688.885498	1306.950806	5757.552246	3596.099365	51.434586
689.213867	1310.920532	5727.668457	3583.197266	51.446831
689.542114	1311.140991	5706.827148	3571.067383	51.412369
689.870361	1310.369141	5686.095703	3557.614258	51.357075
690.198608	1305.737671	5651.470215	3544.161133	51.508541
690.526794	1305.296631	5620.042969	3526.186768	51.472092
690.854858	1302.870605	5598.098633	3513.725830	51.472359
691.182922	1300.775513	5560.605957	3496.633545	51.548012
691.510986	1300.224121	5533.919922	3481.857178	51.530228
691.838928	1297.908447	5499.404785	3463.110840	51.534081
692.166931	1297.687866	5463.015137	3444.254150	51.534161
692.494812	1296.695557	5415.708496	3424.625732	51.661171
692.822632	1295.702881	5372.591309	3403.343018	51.697273
693.150452	1293.056396	5328.923828	3376.656982	51.627083
693.478149	1296.144043	5291.430664	3350.742920	51.425568
693.805908	1294.379639	5266.067871	3336.738525	51.422939
694.133606	1294.710449	5228.244141	3318.433105	51.447956
694.461243	1296.585083	5198.580078	3304.869385	51.468140
694.788818	1295.261841	5180.605957	3289.541748	51.328270
695.116333	1293.938477	5170.019531	3282.815186	51.311535
695.443848	1295.261719	5164.505371	3284.910400	51.422161
695.771301	1292.284302	5178.620605	3292.629150	51.471222
696.098755	1289.748047	5203.322266	3302.112305	51.420113
696.426147	1293.166626	5236.514160	3323.505859	51.487705
696.753418	1293.717896	5275.661133	3344.016357	51.489891
697.080688	1297.687744	5332.451660	3375.774658	51.504547
697.407898	1298.569946	5386.485352	3405.658447	51.544323
697.735107	1301.768066	5424.308594	3430.469971	51.635681
698.062317	1303.201660	5465.219727	3449.326660	51.564529
698.389404	1306.289307	5499.735352	3457.817627	51.306923
698.716492	1305.407104	5531.273438	3474.137939	51.320389
699.043457	1303.863281	5551.122559	3485.606445	51.368259
699.370483	1305.406982	5568.545410	3488.583984	51.210556
699.697388	1309.597412	5572.294434	3487.701660	51.096855
700.024292	1313.677490	5568.766113	3488.693848	51.115650
700.351135	1314.008423	5560.936523	3482.187988	51.052891
700.677917	1318.860352	5549.137695	3469.176025	50.831554
701.004639	1319.191162	5533.699219	3463.110840	50.869991
701.331299	1319.963013	5514.731934	3457.707275	50.962143
701.658020	1321.286133	5491.244629	3442.600098	50.871346
701.984619	1319.963013	5453.972168	3423.192383	50.876263
702.311218	1319.742432	5411.186523	3402.571533	50.906944
702.637756	1319.191040	5359.027344	3375.774902	50.907604
702.964233	1319.411621	5287.901855	3341.149658	50.944767
703.290649	1316.213867	5216.665527	3300.458740	50.872181
703.617065	1319.080933	5132.086914	3261.753418	50.948586
703.943481	1320.624756	5047.287109	3208.381348	50.655422
704.269775	1320.735107	4959.289551	3160.522705	50.563694
704.596008	1319.522095	4881.105957	3113.216064	50.362255
704.922241	1317.095947	4814.500977	3074.069092	50.236481
705.248474	1316.323975	4747.565430	3048.044678	50.469215
705.574585	1315.882935	4687.687500	3022.240967	50.606670
705.900696	1316.103271	4637.072266	2993.349365	50.504719
706.226746	1314.559570	4597.925781	2976.477783	50.616291
706.552734	1311.692505	4570.799316	2965.340088	50.739285
706.878723	1306.068604	4551.612305	2953.651123	50.764454
707.204651	1302.649902	4529.888672	2947.365723	50.963562
707.530518	1301.547363	4516.986328	2948.137695	51.208881
707.856323	1302.098633	4510.700684	2938.764648	51.008694
708.182068	1301.988403	4514.008789	2934.684814	50.830822
708.507813	1299.341797	4509.597656	2940.639404	51.126690
708.833496	1301.106201	4522.278809	2943.616699	50.991074
709.159180	1301.878052	4538.268066	2940.969971	50.645683
709.484802	1303.091187	4550.949219	2943.065186	50.494019
709.810303	1303.752563	4569.696289	2948.468750	50.359596
710.135864	1306.178711	4579.620117	2955.967285	50.399208
710.461304	1306.288818	4591.309570	2959.165039	50.315548
710.786743	1305.627319	4600.352051	2961.480713	50.257717
711.112122	1305.847900	4608.181152	2963.906738	50.208706
711.437500	1305.406860	4615.128418	2967.655762	50.223225
711.762817	1308.825195	4614.136230	2968.097168	50.200176
712.088013	1307.171143	4618.546875	2967.876221	50.151516
712.413269	1309.266357	4613.364258	2960.488037	49.974964
712.738403	1312.133423	4616.562012	2959.716309	49.859840
713.063538	1313.125977	4610.276855	2954.092285	49.769222
713.388611	1312.243652	4604.983398	2942.733887	49.517738
713.713623	1309.817749	4597.154297	2939.646484	49.579006
714.038574	1312.243652	4596.713379	2941.300537	49.598778
714.363525	1310.258789	4590.096680	2933.691650	49.497349
714.688477	1305.847900	4579.951660	2927.516357	49.530148
715.013306	1306.730103	4555.581543	2915.827393	49.528187
715.338135	1307.391724	4534.299316	2900.058594	49.355824
715.662842	1306.068604	4507.282227	2886.715576	49.376492
715.987549	1306.950684	4475.633789	2877.121826	49.552799
716.312195	1308.274048	4442.441406	2862.786621	49.598900
716.636841	1303.863037	4403.735840	2847.569092	49.799011
716.961426	1300.003540	4372.087891	2823.860596	49.603359
717.285950	1297.687744	4341.210938	2803.790771	49.485512
717.610474	1293.497437	4300.630371	2792.873535	49.860653
717.934937	1293.056396	4265.012695	2769.826416	49.690166
718.259277	1292.615234	4230.827637	2753.837158	49.731663
718.583679	1291.291992	4202.046875	2734.318848	49.575691
718.908020	1288.535156	4169.406738	2715.352051	49.527264
719.232239	1286.881104	4142.720703	2699.141846	49.451683
719.556519	1287.542725	4115.262695	2681.498291	49.296097
719.880737	1287.322144	4084.717285	2665.509033	49.266796
720.204834	1284.344727	4055.274902	2655.805176	49.494587
720.528931	1288.755615	4025.060303	2637.720459	49.298782
720.852966	1286.440063	3988.890625	2617.761230	49.263477
721.176941	1288.424805	3950.295410	2603.425781	49.401386
721.500916	1289.307129	3919.970703	2590.413574	49.459248
721.824829	1284.675537	3898.798096	2578.724609	49.502235
722.148743	1284.785767	3867.370117	2567.697510	49.675499
722.472534	1288.535034	3844.874268	2555.126465	49.547077
722.796326	1289.417236	3823.701660	2537.262207	49.238552
723.119995	1288.424805	3799.882813	2529.873779	49.431404
723.443665	1293.056396	3787.201172	2520.169922	49.199772
723.767334	1294.820801	3769.006348	2517.523193	49.418381
724.090942	1294.600220	3758.751221	2512.561035	49.427200
724.414551	1299.231689	3752.686035	2504.621338	49.130306
724.737976	1300.223999	3747.503418	2506.496094	49.290333
725.061462	1302.539795	3747.393555	2507.267822	49.276077
725.384888	1302.870728	3747.834717	2512.781738	49.485844
725.708252	1303.311768	3747.503662	2517.302734	49.668400
726.031616	1303.863159	3752.465820	2519.618408	49.650982
726.354858	1302.981079	3753.017090	2524.139404	49.842461
726.678162	1301.878296	3762.721436	2531.527832	49.968624
727.001404	1305.517334	3766.580811	2533.733154	49.905899
727.324463	1307.281860	3771.102051	2540.349609	50.046982
727.647583	1309.928345	3778.269775	2544.098633	49.999985
727.970642	1306.179077	3790.069092	2545.642578	49.900093
728.293701	1308.715210	3792.384766	2552.479492	50.077690
728.616699	1309.707642	3797.126221	2556.449219	50.121906
728.939575	1309.928223	3815.431152	2557.882813	49.808548
729.262512	1305.958252	3825.686768	2568.469238	50.105042
729.585266	1305.627441	3834.950195	2578.062500	50.307343
729.908142	1304.193848	3854.909180	2584.017578	50.175091
730.230896	1302.098633	3868.252197	2588.097412	50.113865
730.553467	1304.193848	3887.329346	2590.523438	49.797218
730.876160	1301.106201	3901.333740	2600.227539	49.961834
731.198792	1296.695313	3912.360840	2607.726318	50.122272
731.521362	1294.159058	3927.357910	2613.791260	50.115177
731.843872	1293.056152	3925.152832	2611.586182	50.094284
732.166321	1289.968506	3925.152832	2609.821777	50.085804
732.488770	1291.732910	3926.476074	2602.764160	49.759357
732.811157	1289.196655	3919.639404	2600.669189	49.857479
733.133484	1288.755615	3912.250732	2598.904541	49.939064
733.455811	1290.299438	3894.386475	2594.162842	50.069889
733.778015	1290.961182	3877.845947	2587.987549	50.138546
734.100281	1289.527710	3869.685547	2582.694336	50.119675
734.422424	1286.660522	3857.666016	2574.313721	50.083645
734.744507	1290.189331	3842.668945	2563.617432	49.889847
735.066589	1288.645508	3832.192627	2556.008545	49.826599
735.388611	1291.512695	3820.062988	2548.399658	49.707809
735.710571	1290.630493	3804.293945	2543.547363	49.844254
736.032532	1292.505005	3794.038574	2530.976318	49.508480
736.354431	1292.284424	3781.467529	2524.690918	49.510479
736.676270	1293.276733	3765.367920	2518.846436	49.576233
736.998108	1298.900879	3751.914551	2516.089600	49.620136
737.319824	1297.687866	3736.807373	2507.377686	49.595345
737.641541	1301.547485	3717.729980	2501.533936	49.664558
737.963135	1302.209106	3696.888672	2495.248291	49.820408
738.284790	1303.311890	3671.305176	2485.213623	49.911533
738.606323	1303.532227	3660.498047	2480.361816	49.929855
738.927856	1305.517334	3650.022217	2473.635010	49.823639
739.249390	1307.391968	3639.436279	2469.113770	49.815594
739.570740	1311.913086	3628.740234	2462.717773	49.671581
739.892212	1310.810303	3617.933350	2450.808350	49.412106
740.213562	1308.604858	3610.214355	2443.309814	49.300503
740.534790	1310.479614	3603.818359	2443.640381	49.410961
740.856079	1306.730347	3588.931641	2430.407715	49.236561
741.177246	1304.304443	3578.455322	2424.342529	49.250824
741.498413	1306.399536	3569.964600	2425.666260	49.447079
741.819580	1307.943237	3562.245605	2419.380615	49.302944
742.140625	1309.707642	3551.989990	2406.368408	48.908241
742.461670	1307.722534	3536.992920	2397.987793	48.906818
742.782654	1306.950562	3515.489990	2395.341553	49.281029
743.103577	1309.155884	3498.728760	2383.431885	49.063271
743.424438	1309.707275	3477.335938	2373.286865	49.066502
743.745300	1305.847900	3448.003418	2364.795654	49.433746
744.066101	1304.745117	3421.758545	2358.069092	49.755188
744.386902	1303.421875	3399.924561	2341.528076	49.516090
744.707581	1302.649902	3381.399170	2328.957031	49.371376
745.028198	1302.429443	3367.504395	2320.906982	49.319157
745.348816	1299.562378	3355.815430	2311.423584	49.208984
745.669373	1297.357056	3337.620605	2308.225342	49.545967
745.989929	1295.261963	3316.558350	2304.035400	49.907249
746.310364	1293.497437	3301.892090	2295.985596	49.914898
746.630798	1294.159180	3289.431641	2290.912842	49.955769
746.951172	1290.409912	3286.343750	2291.243896	50.143646
747.271545	1286.109375	3276.529297	2287.163574	50.293617
747.591858	1290.299683	3275.537109	2287.274170	50.219410
747.912109	1295.261841	3266.936035	2283.083740	50.100666
748.232300	1291.512695	3258.555176	2282.311768	50.369987
748.552429	1294.159180	3245.542725	2275.033936	50.265606
748.872559	1289.637817	3235.066895	2278.342041	50.821911
749.192627	1293.387329	3235.287598	2276.357178	50.618965
749.512695	1293.166626	3236.941162	2268.527832	50.178722
749.832642	1293.938477	3234.956543	2268.527832	50.210217
750.152588	1295.592651	3234.625732	2265.770996	50.034130
750.472473	1295.592651	3243.116455	2262.021729	49.623478
750.792358	1297.246704	3246.204346	2262.903809	49.547363
751.112122	1298.570068	3241.242188	2259.595703	49.469265
751.431824	1300.775391	3249.181641	2257.280029	49.091644
751.751587	1300.334351	3246.093750	2254.854004	49.056408
752.071228	1299.452148	3243.447510	2254.192139	49.112255
752.390869	1300.665161	3240.911133	2251.766113	49.019608
752.710327	1303.752808	3238.595215	2249.119629	48.860146
753.029846	1303.201416	3238.595215	2250.332520	48.937386
753.349304	1304.524780	3236.610596	2250.443115	48.958401
753.668762	1305.186279	3230.545654	2242.172852	48.665543
753.988098	1304.965820	3223.157471	2234.343262	48.450706
754.307434	1304.193848	3213.674072	2230.483643	48.510048
754.626770	1303.862915	3210.917480	2228.388672	48.479252
754.946045	1302.760376	3209.262939	2219.787354	48.099960
755.265259	1299.011108	3208.050293	2222.543701	48.376827
755.584351	1300.885742	3207.277832	2219.015137	48.160576
755.903442	1299.562500	3202.756592	2221.661377	48.450069
756.222534	1298.459839	3192.391357	2223.205811	48.826790
756.541565	1296.033813	3191.288330	2221.000488	48.804352
756.860535	1295.813354	3191.178223	2219.897461	48.754944
757.179443	1294.820923	3185.995605	2215.927734	48.705540
757.498291	1297.467529	3183.789795	2211.958008	48.480076
757.817139	1300.665405	3188.752197	2213.281250	48.335480
758.135925	1302.540039	3184.892822	2213.501709	48.394844
758.454651	1301.657837	3183.569092	2212.729492	48.412041
758.773376	1305.958374	3179.820313	2211.847168	48.343410
759.092041	1306.178955	3185.002930	2208.649658	48.033810
759.410645	1302.540039	3189.193359	2210.083008	48.103325
759.729187	1301.547485	3180.482178	2208.539307	48.271599
760.047607	1301.768188	3185.223633	2202.805176	47.839569
760.366089	1305.406982	3187.319092	2206.223633	47.867096
760.684509	1305.186523	3201.543945	2207.988037	47.607140
761.002869	1305.627563	3227.237305	2220.228271	47.595551
761.321228	1304.193970	3265.833008	2243.826904	47.900398
761.639465	1306.840576	3313.470703	2273.710693	48.183773
761.957642	1306.730225	3365.739990	2300.837402	48.280838
762.275879	1304.965820	3409.297607	2322.561279	48.357178
762.593994	1303.752930	3447.561768	2340.314941	48.351421
762.912109	1302.539673	3483.180176	2353.106689	48.176991
763.230103	1305.296387	3503.359863	2369.206299	48.402145
763.548157	1302.649780	3515.710449	2379.351563	48.652161
763.866150	1302.980713	3529.274170	2392.032959	48.917732
764.184021	1301.326660	3539.860596	2399.531250	49.059101
764.501892	1298.018555	3546.587158	2410.779053	49.487503
764.819702	1295.923340	3544.491699	2414.418213	49.742535
765.137451	1296.474731	3548.792725	2418.057373	49.796818
765.455200	1292.504883	3554.416748	2420.593262	49.873226
765.772888	1293.607666	3544.161377	2416.623779	49.899548
766.090515	1293.828247	3534.347168	2415.741699	50.073818
766.408081	1295.371948	3534.897949	2417.616211	50.110798
766.725586	1293.938477	3525.415283	2419.490967	50.439804
767.043091	1294.269287	3515.600342	2407.360840	50.109215
767.360535	1294.820679	3500.824463	2402.729492	50.222431
767.677917	1293.497437	3468.404053	2390.048096	50.418285
767.995239	1291.512573	3422.089355	2364.134033	50.344185
768.312500	1292.174194	3362.983643	2332.595947	50.242271
768.629822	1290.299561	3302.553467	2294.221191	49.890404
768.947021	1290.520142	3246.204346	2269.189453	50.042297
769.264160	1294.379639	3190.406738	2238.974365	49.819683
769.581299	1294.379639	3148.392822	2221.772217	50.020821
769.898376	1292.505005	3111.230713	2195.196533	49.633186
770.215393	1292.174072	3077.928467	2176.229492	49.505993
770.532349	1292.504883	3049.698975	2156.932129	49.193611
770.849304	1291.512451	3019.925293	2143.258057	49.279060
771.166199	1290.740601	2998.863281	2123.519287	48.754032
771.483032	1287.542725	2981.770752	2111.389404	48.626671
771.799866	1288.645508	2961.260010	2100.362061	48.529804
772.116577	1291.622803	2940.528564	2091.429932	48.505325
772.433350	1293.938599	2928.509033	2087.239258	48.532669
772.749939	1294.931030	2919.025391	2072.242188	47.861206
773.066589	1294.048828	2905.131348	2064.523193	47.823395
773.383057	1297.357178	2888.811035	2057.906738	47.789608
773.699646	1298.680420	2876.460205	2055.811523	47.987122
774.016113	1300.885864	2860.029785	2044.674072	47.704910
774.332520	1303.201660	2851.208008	2033.646973	47.186195
774.648804	1308.494751	2842.055176	2025.486572	46.753410
774.965149	1307.943359	2831.689697	2022.950317	46.924278
775.281433	1313.126099	2820.993164	2020.083374	46.884590
775.597656	1313.677490	2814.156494	2013.467041	46.637745
775.913879	1312.905640	2807.540283	2010.379517	46.665176
776.229980	1314.449463	2797.836426	2002.880737	46.409420
776.546082	1312.023315	2787.691162	2003.432129	46.853958
776.862122	1315.882935	2780.854248	2000.344727	46.721855
777.178162	1317.978149	2771.812012	2001.226807	46.996338
777.494141	1315.331421	2767.621582	1994.059204	46.734997
777.809998	1314.780151	2755.822266	1991.522827	46.962032
778.125854	1316.544556	2750.309082	1987.442871	46.792782
778.441711	1317.426758	2744.133789	1982.480835	46.614620
778.757446	1316.323975	2737.847900	1974.210327	46.280357
779.073181	1313.567017	2733.547363	1971.673950	46.346199
779.388855	1316.323853	2727.702637	1968.696411	46.222359
779.704468	1315.552124	2723.623047	1960.977295	45.837547
780.020020	1310.258911	2717.888672	1959.653809	46.133926
780.335571	1311.251343	2708.736328	1959.984985	46.421513
780.651062	1310.479492	2703.222168	1959.874634	46.627071
780.966553	1307.722656	2697.708740	1962.411133	47.100361
781.281860	1301.657471	2686.020020	1961.198242	47.642200
781.597290	1301.767944	2678.631592	1950.942749	47.148808
781.912476	1299.231812	2675.102783	1946.421509	47.038548
782.227722	1300.775635	2666.060547	1943.885254	47.104427
782.542908	1299.011108	2654.923096	1941.018066	47.348721
782.858093	1299.452148	2642.682373	1930.762817	46.999439
783.173218	1302.539917	2640.256836	1925.910767	46.599609
783.488281	1300.003662	2639.595215	1920.066406	46.287449
783.803345	1299.562622	2630.883789	1914.001343	46.152554
784.118225	1301.547485	2618.202148	1908.928711	46.130642
784.433167	1302.208862	2609.821533	1903.194580	45.960529
784.748047	1303.532227	2603.425537	1899.004150	45.809292
785.062866	1306.619995	2590.193115	1894.703735	45.816147
785.377686	1305.958374	2579.276123	1897.350098	46.444946
785.692444	1306.619995	2568.689697	1895.365356	46.649197
786.007141	1305.517334	2564.830078	1897.901611	47.040283
786.321716	1308.825439	2558.765137	1900.107178	47.304821
786.636353	1311.141113	2562.073242	1896.688843	46.808914
786.950928	1309.487061	2567.256104	1895.585938	46.598289
787.265442	1308.715088	2574.313721	1897.240112	46.501713
787.579834	1304.414551	2570.674561	1896.798950	46.782207
787.894226	1308.163696	2576.850098	1902.863892	46.875271
788.208618	1304.193970	2578.834961	1903.966919	47.054264
788.522949	1305.517212	2574.424072	1901.540771	46.971420
788.837219	1302.870605	2574.424072	1896.027100	46.648174
789.151367	1303.752808	2579.937500	1893.821655	46.236946
789.465515	1301.657593	2579.937744	1895.144897	46.428577
789.779602	1299.893188	2571.005615	1896.247559	46.915943
790.093689	1303.973267	2559.427002	1894.813843	47.061916
790.407776	1300.554688	2555.016113	1888.528442	46.870613
790.721741	1299.672607	2549.943848	1888.307861	47.080605
791.035645	1298.018555	2541.562988	1890.072144	47.610168
791.349548	1296.695190	2534.615967	1887.315430	47.710667
791.663391	1293.938477	2536.270020	1886.102539	47.665543
791.977173	1296.805664	2532.630859	1877.501343	46.988495
792.290894	1296.254150	2521.714111	1870.553955	46.864021
792.604614	1298.790771	2510.466064	1862.614258	46.532555
792.918274	1299.231812	2501.754639	1855.005371	46.217297
793.231812	1298.680542	2485.764893	1850.704590	46.502514
793.545410	1298.459839	2473.083496	1839.787964	46.085239
793.858948	1300.113892	2456.983398	1834.163818	46.163368
794.172363	1304.524780	2451.690186	1826.114258	45.467678
794.485840	1302.209106	2442.427490	1819.387451	45.357834
794.799194	1308.494629	2439.449951	1816.520264	44.920044
795.112488	1307.171265	2438.126953	1816.409912	45.027287
795.425781	1309.156128	2435.370117	1818.284790	45.207100
795.738953	1305.958374	2428.533203	1814.755981	45.324162
796.052185	1307.061035	2428.753906	1811.888794	45.005882
796.365234	1307.171265	2428.754150	1807.367554	44.597355
796.678284	1305.627441	2429.966797	1805.934204	44.497845
796.991333	1308.825317	2427.540771	1804.500732	44.307552
797.304382	1309.927979	2429.305176	1797.112305	43.522804
797.617310	1312.023193	2428.974121	1794.796631	43.222439
797.930115	1312.574463	2422.468262	1789.614014	42.980648
798.242981	1314.890259	2417.726318	1788.952393	42.985729
798.555786	1313.236084	2413.425781	1784.431030	42.828518
798.868530	1317.205933	2412.764160	1784.320923	42.637165
799.181213	1313.346436	2411.110352	1785.754517	43.033669
799.493896	1313.125854	2406.479004	1784.541504	43.116505
799.806519	1316.985474	2406.037842	1777.484009	42.284332
800.119080	1318.198608	2402.068115	1776.932617	42.323730
800.431580	1315.000610	2392.033203	1773.183350	42.541214
800.744080	1313.897949	2382.329346	1768.441650	42.543087
801.056458	1315.000732	2373.948486	1760.170898	42.038918
801.368835	1312.133667	2360.054199	1755.649780	42.323448
801.681152	1314.890381	2348.144531	1752.010742	42.305214
801.993408	1316.765015	2338.440430	1745.615112	41.975182
802.305664	1319.962891	2329.397949	1744.181519	42.025352
802.617798	1320.845093	2318.812012	1745.504883	42.552490
802.929993	1320.403809	2310.431396	1744.843140	42.871464
803.242065	1321.396240	2301.058105	1744.181519	43.156246
803.554016	1318.418945	2295.985596	1742.196777	43.350277
803.865967	1318.639404	2289.479492	1745.394531	43.957302
804.177979	1316.103271	2288.045898	1742.747925	43.896072
804.489807	1314.890381	2288.045654	1748.812866	44.589233
804.801697	1311.251343	2286.281494	1748.261475	44.820168
805.113464	1310.369263	2280.547363	1751.680054	45.487606
805.425232	1306.730225	2282.311523	1748.040894	45.235664
805.736938	1305.627563	2277.900879	1741.424683	44.822491
806.048584	1300.554932	2273.269287	1736.131470	44.779491
806.360168	1297.467285	2267.535400	1740.322021	45.651920
806.671753	1296.915771	2257.280029	1740.101563	46.147678
806.983276	1298.790527	2257.831299	1739.329590	45.935383
807.294739	1300.223999	2252.979248	1737.013916	45.844925
807.606140	1301.437012	2248.568359	1733.926392	45.663082
807.917542	1301.326782	2247.906738	1732.272095	45.526562
808.228760	1301.216431	2242.393311	1729.515259	45.506729
808.540100	1300.223999	2231.917236	1728.192017	45.934433
808.851318	1297.026123	2225.080322	1723.229858	45.924446
809.162476	1297.356934	2217.361328	1715.400269	45.439278
809.473633	1297.246704	2212.840088	1709.225098	44.995781
809.784668	1291.071411	2206.113525	1705.365479	45.275955
810.095703	1295.813110	2194.975830	1699.631104	44.910446
810.406738	1298.570068	2186.594971	1694.228027	44.554829
810.717590	1302.870605	2174.465332	1689.596558	44.369926
811.028503	1303.311890	2163.548096	1681.767456	43.994377
811.339294	1303.201416	2153.733887	1675.151001	43.731380
811.650085	1302.209106	2148.661377	1668.865479	43.316841
811.960876	1299.231812	2137.082764	1666.218994	43.801010
812.271545	1301.988525	2129.143311	1670.850220	44.594036
812.582153	1309.045898	2126.496582	1668.203857	43.936344
812.892761	1307.281616	2116.902832	1662.138550	43.829994
813.203308	1302.980957	2115.579590	1657.066162	43.574429
813.513855	1303.973511	2111.058594	1652.434692	43.175274
813.824280	1303.311768	2107.530029	1651.111206	43.246895
814.134705	1301.988525	2105.765869	1648.244385	43.078579
814.445068	1301.437012	2096.943604	1645.818481	43.290836
814.755371	1301.437012	2098.156738	1644.384644	43.044952
815.065613	1299.562378	2102.016113	1642.730835	42.764889
815.375854	1302.980835	2101.354492	1639.753540	42.182343
815.686035	1302.208984	2104.111328	1643.061523	42.505493
815.996155	1303.311646	2104.442139	1641.407593	42.202358
816.306152	1308.053467	2105.544922	1636.334961	41.164265
816.616211	1306.840454	2114.036133	1638.871338	41.133877
816.926208	1303.091187	2117.675049	1643.612915	41.803150
817.236145	1303.752930	2126.166016	1648.685669	41.941544
817.546021	1304.524780	2139.619141	1651.773193	41.581936
817.855774	1305.186401	2151.638916	1657.397095	41.610214
818.165588	1305.958252	2168.951660	1668.203735	41.975464
818.475281	1309.928101	2192.218750	1678.900269	41.819798
818.784973	1305.406860	2222.102783	1688.935059	41.838104
819.094604	1299.231689	2250.112061	1706.247803	42.804134
819.404175	1298.790405	2295.434082	1727.861206	43.051575
819.713684	1298.680298	2358.620117	1764.361450	43.934677
820.023254	1297.577515	2484.661865	1838.354370	45.555050
820.332642	1295.923340	2704.766113	1953.699463	46.689110
820.642090	1295.923584	2994.231445	2111.609863	48.029354
820.951416	1296.144043	3298.804688	2267.865967	48.521545
821.260681	1292.725586	3552.982910	2399.972900	48.987667
821.569946	1293.497559	3751.914551	2504.180420	49.246441
821.879150	1294.159180	3915.779785	2587.987793	49.352245
822.188293	1295.592773	4045.460449	2653.379395	49.376434
822.497437	1298.018799	4152.204102	2710.500488	49.488087
822.806458	1298.018799	4247.811035	2762.438721	49.644848
823.115479	1298.790649	4328.861328	2803.129395	49.646984
823.424438	1300.334473	4405.721191	2834.115967	49.390999
823.733337	1295.813232	4468.245605	2864.330566	49.442104
824.042236	1296.144043	4520.073730	2894.104248	49.565605
824.351013	1295.372192	4567.932129	2918.364502	49.593967
824.659790	1297.467407	4607.079102	2940.859863	49.655144
824.968445	1297.908447	4665.522949	2971.405518	49.693844
825.277100	1301.106445	4735.656250	3010.552002	49.772041
825.585693	1304.635010	4822.220703	3054.771240	49.753906
825.894287	1309.376709	4879.562012	3092.263672	49.938221
826.202820	1314.890381	4901.395996	3097.667236	49.707905
826.511292	1313.787720	4834.019531	3055.763672	49.484692
826.819702	1316.213745	4662.435059	2966.553223	49.319496
827.128113	1320.073242	4409.911133	2827.609863	48.790154
827.436401	1319.962769	4141.618164	2688.997314	48.518845
827.744751	1321.506592	3911.148438	2569.572021	48.194519
828.052917	1322.057983	3731.293945	2474.958252	47.853359
828.361145	1319.521729	3583.308105	2398.429199	47.659420
828.669312	1320.183350	3465.977295	2337.558350	47.412521
828.977356	1315.993164	3366.732178	2285.509766	47.276451
829.285400	1312.464233	3275.867920	2241.621094	47.323780
829.593384	1310.920532	3197.353516	2202.143311	47.243809
829.901306	1307.833008	3122.257813	2169.943848	47.514278
830.209167	1312.133667	3057.858887	2136.200439	47.204838
830.517029	1312.795288	2998.532471	2104.331543	46.954903
830.824829	1314.669922	2946.704346	2079.189453	46.844570
831.132568	1311.802856	2898.073975	2053.937256	46.784840
831.440247	1308.935791	2841.724609	2021.517334	46.489220
831.747925	1308.384399	2783.059814	1991.192383	46.302258
832.055481	1305.848022	2716.786133	1957.779541	46.205536
832.363037	1306.178833	2668.706787	1923.374634	45.297844
832.670532	1304.635010	2628.898438	1908.267090	45.582478
832.977966	1306.178833	2611.034180	1895.144775	45.136494
833.285400	1308.825317	2591.847168	1885.220215	44.924793
833.592712	1306.840454	2572.659668	1877.060059	45.047478
833.900085	1307.391724	2552.700195	1864.599487	44.744556
834.207275	1302.760254	2539.798096	1857.431763	44.838684
834.514526	1301.767822	2527.668213	1853.792603	45.030151
834.821716	1302.760376	2517.964111	1850.043335	45.036312
835.128784	1303.091187	2508.921631	1845.632202	44.993141
835.435852	1306.399292	2503.297852	1841.111084	44.674778
835.742798	1308.163696	2494.696533	1832.178955	44.163570
836.049805	1307.722534	2485.323730	1825.782959	43.992859
836.356750	1309.597168	2474.847656	1820.159058	43.815636
836.663574	1306.950562	2463.930664	1814.314697	43.852451
836.970398	1307.060913	2452.021484	1808.690796	43.811977
837.277161	1304.524658	2437.244629	1798.545898	43.613712
837.583923	1305.075928	2424.122314	1784.651611	42.855747
837.890564	1308.053345	2396.774658	1774.396240	42.834000
838.197205	1308.604858	2354.650391	1750.687500	42.262276
838.503784	1311.692505	2308.005371	1720.142090	40.996117
838.810303	1309.376709	2257.059326	1698.638916	41.075165
839.116699	1306.509766	2211.626953	1671.291504	40.302155
839.423096	1309.046021	2160.791260	1646.369751	39.603828
839.729492	1308.715210	2120.541992	1624.425537	38.888878
840.035828	1304.745361	2089.996582	1609.318481	38.786713
840.342102	1302.760620	2067.500732	1598.621826	38.687809
840.648315	1308.494751	2039.601807	1586.822754	38.069389
840.954529	1311.692505	2021.517090	1573.810669	36.927174
841.260620	1313.015747	2003.432251	1564.106567	36.368023
841.566711	1310.258911	1989.207275	1555.505249	36.121502
841.872803	1309.707397	1968.365845	1548.668335	36.279949
842.178772	1312.795044	1954.250977	1544.477905	36.118282
842.484680	1310.920532	1935.394165	1541.721191	36.959232
842.790588	1312.574585	1921.830688	1535.876587	36.651581
843.096436	1313.567017	1911.354858	1531.245117	36.413940
843.402222	1314.118286	1899.996826	1524.408325	35.893112
843.707947	1315.551880	1889.300415	1521.872070	35.960037
844.013611	1315.993042	1878.162720	1515.807129	35.543377
844.319275	1313.125977	1861.070679	1505.992798	35.198227
844.624817	1314.118530	1844.529785	1496.068237	34.303516
844.930359	1311.913086	1820.380005	1490.003296	35.024937
845.235901	1311.030884	1800.530884	1475.116455	33.521057
845.541321	1315.993164	1778.035400	1467.728271	32.840096
845.846680	1311.913086	1765.354004	1463.868530	33.511631
846.152039	1311.472046	1751.459839	1459.237061	33.583889
846.457275	1316.323975	1736.793335	1454.274780	32.808765
846.762512	1318.308838	1724.553223	1450.084473	32.437527
847.067749	1316.654785	1716.392822	1445.783813	32.303413
847.372925	1315.110840	1705.365479	1442.365356	32.608074
847.677979	1313.125977	1699.410889	1444.019409	33.885204
847.983032	1314.669922	1687.391235	1439.057251	33.372746
848.288025	1310.369263	1681.767456	1436.410767	33.937027
848.592957	1309.045898	1679.782349	1431.227905	32.956566
848.897888	1312.905518	1675.812744	1426.927246	31.418974
849.202759	1312.133667	1675.151001	1424.832031	31.044899
849.507507	1308.715210	1670.739990	1423.508789	31.708763
849.812317	1308.825439	1668.093506	1422.185547	31.553070
850.117004	1308.163818	1667.211182	1417.774536	30.528206
850.421631	1305.958374	1663.682617	1416.671875	30.949398
850.726257	1304.745361	1661.146240	1416.671875	31.404669
851.030823	1304.635010	1660.154053	1415.789673	31.265459
851.335327	1303.421875	1660.264282	1413.143188	30.747835
851.639771	1301.326782	1656.404785	1414.797241	31.956488
851.944153	1296.805664	1654.419800	1417.443970	33.734211
852.248535	1297.136353	1657.507446	1416.341064	33.078323
852.552856	1295.041260	1663.792725	1411.930176	31.698563
852.857056	1291.733032	1663.131104	1411.930298	32.363461
853.161255	1286.770874	1662.579834	1411.158447	33.098618
853.465393	1284.124268	1660.594727	1410.276245	33.509132
853.769531	1279.382568	1652.765381	1407.850220	34.406418
854.073547	1280.044189	1649.788086	1402.557129	33.134541
854.377563	1280.375000	1644.715576	1401.895508	33.353546
854.681580	1280.485474	1645.156616	1393.845459	31.085537
854.985474	1280.926392	1640.194336	1392.411987	31.031322
855.289307	1279.492920	1640.525269	1387.890869	30.024443
855.593140	1276.736084	1639.312134	1390.978638	31.508577
855.896851	1277.066895	1640.525269	1388.773071	30.734241
856.200623	1276.736084	1638.981445	1388.111572	30.745871
856.504272	1275.633423	1635.783691	1384.141602	30.128584
856.807922	1278.169678	1635.452759	1385.464966	30.030890
857.111389	1280.044312	1639.312256	1384.692993	29.128311
857.414978	1278.390259	1637.768555	1383.479980	29.242088
857.718445	1279.382568	1635.121826	1383.369751	29.231293
858.021790	1284.565308	1632.585693	1379.620483	27.313107
858.325195	1287.322144	1635.452881	1374.878662	25.150471
858.628479	1291.071655	1630.380371	1371.349976	23.659374
858.931763	1289.637817	1624.315308	1372.121948	24.645855
859.234985	1288.866089	1626.410522	1368.152100	23.489059
859.538147	1291.071533	1623.763916	1363.189941	21.677204
859.841248	1294.710571	1626.410522	1359.881714	19.647619
860.144287	1297.687866	1629.828857	1361.976807	19.355919
860.447266	1298.459717	1628.615723	1362.638428	19.438904
860.750305	1296.915894	1632.585571	1363.410156	19.809433
861.053223	1299.121338	1634.680786	1369.034180	20.834711
861.356018	1295.592651	1635.342407	1371.570435	22.362865
861.658813	1294.489746	1634.460205	1372.562744	22.964642
861.961609	1299.672607	1630.049316	1369.364990	21.094824
862.264343	1299.562256	1629.056885	1369.364990	21.184786
862.567017	1301.216309	1630.821289	1370.467773	21.010443
862.869629	1302.539673	1627.843994	1373.004028	21.661057
863.172180	1302.429443	1623.322754	1375.650635	22.817924
863.474670	1302.980713	1619.463135	1377.966309	23.693447
863.777161	1304.083496	1617.037231	1380.171631	24.312902
864.079590	1303.973267	1616.044800	1379.951172	24.346312
864.381958	1302.760254	1622.330322	1382.597656	24.982754
864.684265	1300.665161	1622.991943	1382.156494	25.282209
864.986511	1297.246704	1621.889160	1382.156616	26.154902
865.288757	1299.341797	1621.338013	1383.259399	26.061674
865.590942	1301.988281	1621.117432	1386.677734	26.537674
865.893066	1303.642578	1622.661133	1390.647583	27.272711
866.195068	1301.988403	1619.352905	1390.978271	28.040272
866.497131	1300.223999	1619.353027	1386.126465	26.917786
866.799133	1304.193848	1623.874023	1388.001099	26.215967
867.100952	1304.965698	1619.794067	1387.780640	26.304790
867.402832	1306.619751	1616.816650	1386.567505	25.773228
867.704651	1309.597168	1615.272827	1382.046265	23.701298
868.006409	1309.045898	1617.808960	1382.928467	23.928564
868.308105	1307.612305	1620.345459	1379.730713	23.060686
868.609802	1310.810303	1620.896973	1378.627930	21.870539
868.911438	1310.148682	1618.360474	1377.414917	21.824678
869.213013	1310.479370	1617.478394	1373.334839	20.474159
869.514465	1310.258911	1621.117432	1370.798584	19.474993
869.815979	1312.133545	1620.345459	1366.938965	17.781733
870.117371	1311.802734	1622.771362	1364.513062	16.950369
870.418701	1315.000610	1624.425537	1366.497925	16.642910
870.720093	1317.536987	1622.440674	1363.300171	15.009062
871.021301	1319.080811	1621.558350	1363.410400	14.655499
871.322571	1320.955322	1622.550781	1365.064575	14.625304
871.623718	1319.301392	1625.638550	1365.946655	15.226773
871.924805	1318.088379	1625.417969	1365.285156	15.357056
872.225891	1318.970581	1625.528442	1361.756470	13.956872
872.526917	1321.396484	1629.277588	1364.182251	13.896847
872.827881	1323.491699	1626.631104	1365.505615	13.859602
873.128784	1318.970459	1619.242920	1359.991943	13.661421
873.429626	1317.867798	1620.345581	1361.756348	14.509677
873.730408	1317.757568	1618.691406	1362.969360	15.023831
874.031189	1314.338989	1621.338013	1365.946655	16.810368
874.331848	1314.780151	1621.227661	1367.269897	17.128462
874.632568	1311.692627	1620.786499	1366.828735	17.837982
874.933167	1311.251343	1620.896973	1366.718628	17.913149
875.233704	1309.156250	1623.102295	1366.167358	18.159525
875.534241	1308.494629	1626.630981	1374.547852	20.762550
875.834717	1307.171509	1627.513184	1375.430054	21.308044
876.135071	1303.752930	1634.570679	1373.665771	21.133341
876.435425	1302.539917	1634.019165	1375.099365	21.889589
876.735779	1304.635132	1635.893799	1374.217041	21.005310
877.036011	1298.901001	1636.004150	1380.171631	24.108534
877.336182	1297.246948	1638.650635	1382.928589	25.096870
877.636353	1294.931152	1645.928589	1385.023804	25.667610
877.936462	1294.931030	1651.001099	1386.567505	25.735518
878.236511	1297.908447	1661.366821	1389.434692	25.182043
878.536560	1297.798218	1679.782349	1402.667358	27.453794
878.836487	1297.246826	1703.049805	1416.120605	29.293472
879.136414	1294.379639	1762.486816	1445.894165	32.367485
879.436279	1291.843506	1852.138428	1491.767578	35.681934
879.736084	1293.276855	1963.513550	1547.014160	37.857864
880.035828	1290.961182	2086.908691	1609.869629	40.066517
880.335510	1293.938477	2202.694824	1669.416626	41.317802
880.635193	1293.276855	2303.594238	1719.811157	42.217854
880.934753	1297.797852	2393.576904	1769.544312	43.051239
881.234314	1296.474854	2473.193359	1808.911499	43.547939
881.533752	1298.569946	2539.467529	1843.316772	43.899418
881.833252	1297.798096	2600.889404	1872.098022	44.072117
882.132629	1298.570068	2658.892822	1900.768799	44.268814
882.431946	1298.680298	2704.766113	1931.534790	45.008240
882.731323	1299.893433	2746.559326	1949.399048	44.896725
883.030579	1298.459839	2780.192627	1969.468506	45.285404
883.329712	1298.018677	2813.053955	1983.362915	45.236191
883.628845	1298.790527	2833.675049	1993.618286	45.269058
883.927979	1298.900879	2847.128174	2002.660767	45.455853
884.226990	1299.452148	2858.045166	2010.269287	45.606335
884.526001	1296.144043	2861.684082	2014.900635	45.911095
884.824951	1296.695435	2855.398682	2007.401978	45.596012
885.123840	1295.702881	2838.306396	1998.249390	45.542908
885.422729	1297.687744	2793.645996	1976.194946	45.356026
885.721497	1300.223999	2709.948975	1937.268555	45.189278
886.020203	1301.216553	2605.962158	1884.337769	44.692329
886.318909	1302.760376	2484.331299	1822.254639	43.966404
886.617554	1302.980835	2367.773193	1761.053223	43.019878
886.916138	1302.980957	2268.858643	1709.335327	42.070995
887.214661	1300.554932	2181.522705	1662.138794	41.043938
887.513184	1301.106323	2099.369629	1623.433228	40.378521
887.811523	1298.018677	2028.905518	1591.343750	40.132763
888.109924	1303.752808	1794.686401	1491.326538	38.207558
888.408264	1292.174194	1871.105347	1498.273682	35.599998
888.706543	1294.489868	1690.478760	1465.853516	43.274860
889.004761	1331.541504	1743.740479	1470.484985	33.707867
889.302979	1313.015747	1655.742920	1398.697510	24.999990
889.601135	1329.225830	1637.217163	1347.751587	6.015025
889.899170	1282.911255	1678.900146	1368.593140	21.637447
890.197205	1313.015747	1667.321533	1384.803223	20.261446
890.495178	1299.121338	1597.849854	1382.487427	27.906975
890.793091	1271.332642	1570.061157	1414.907593	48.062016
>>>>>End Processed Spectral Data<<<<<
