Jaz Data File
++++++++++++++++++++++++++++++++++++
Date: Thu Sep 26 04:28:23 2019
User: jaz
Dark Spectrum Present: Yes
Reference Spectrum Present: Yes
Processed Spectrum Present: Yes
Spectrometers: JAZA3541
Integration Time (usec): 100000 (JAZA3541)
Spectra Averaged: 1 (JAZA3541)
Boxcar Smoothing: 10 (JAZA3541)
Correct for Electrical Dark: No (JAZA3541)
Strobe/Lamp Enabled: Yes (JAZA3541)
Correct for Detector Non-linearity: No (JAZA3541)
Correct for Stray Light: No (JAZA3541)
Number of Pixels in Processed Spectrum: 2048
>>>>>Begin Processed Spectral Data<<<<<
W	D	R	S	P
190.543274	0.000000	0.000000	0.000000	0.000000
190.921555	0.000000	0.000000	0.000000	0.000000
191.299805	1296.805664	1336.172974	1174.072266	-311.764771
191.678024	1229.649658	1322.278564	1199.545166	-32.500107
192.056229	1345.435913	1313.015747	1211.123901	414.285400
192.434387	1331.541504	1278.279907	1199.545166	247.826477
192.812531	1303.752808	1324.594360	1187.966553	-555.554810
193.190659	1310.699951	1296.805664	1225.018188	616.669006
193.568741	1319.962891	1359.330200	1266.701172	-135.294281
193.946793	0.000000	0.000000	0.000000	0.000000
194.324829	1207.815674	1211.785522	1114.525146	-2349.977051
194.702835	1271.994385	1273.317627	1169.220337	-7766.835938
195.080811	1337.606445	1335.070313	1228.105957	4317.616699
195.458755	1337.827148	1332.203125	1232.847534	1866.628296
195.836685	1338.268188	1331.541626	1233.950439	1550.833008
196.214569	1339.811890	1336.172974	1233.619507	2918.242188
196.592422	1341.907104	1340.032471	1235.163330	5694.113281
196.970261	1342.679077	1342.127686	1237.258423	19119.017578
197.348068	1343.781860	1343.120117	1240.787109	15564.158203
197.725861	1344.222900	1342.127563	1242.220825	4868.051270
198.103622	1343.561279	1338.157837	1241.779541	1883.646240
198.481323	1340.253052	1337.496216	1244.977417	3455.977783
198.859039	1337.937378	1335.290771	1244.205566	3541.584717
199.236694	1335.070313	1335.621460	1246.080322	-16146.312500
199.614334	1333.416138	1335.511230	1248.616455	-4047.538330
199.991959	1329.115479	1337.937134	1248.395874	-915.016541
200.369553	1324.373657	1337.826904	1248.285645	-565.573608
200.747101	1322.499023	1341.355835	1250.049927	-384.206512
201.124619	1320.514038	1341.576294	1253.909546	-316.226776
201.502136	1316.323608	1346.538452	1252.145264	-212.406677
201.879623	1313.677246	1349.736450	1246.300903	-186.849228
202.257065	1311.030640	1351.500854	1244.095459	-165.393692
202.634476	1309.927979	1352.934570	1247.955078	-144.100937
203.011871	1305.186279	1354.809082	1246.411133	-118.443825
203.389221	1303.091064	1361.866455	1243.102905	-102.063393
203.766571	1304.745117	1367.931519	1241.559204	-99.999229
204.143875	1300.334229	1365.064331	1248.175537	-80.578728
204.521164	1296.254272	1365.284912	1249.167847	-68.210907
204.898392	1297.798096	1363.300049	1249.057617	-74.410728
205.275620	1298.459717	1368.703369	1244.426270	-76.922890
205.652817	1293.718018	1368.482910	1239.463989	-72.566185
206.029984	1293.607666	1372.673218	1236.155762	-72.663635
206.407135	1291.953613	1374.988892	1231.083130	-73.306770
206.784225	1292.394775	1374.437378	1231.744751	-73.925034
207.161301	1293.607910	1372.893555	1230.752441	-79.277237
207.538376	1298.570190	1373.555176	1231.524170	-89.412598
207.915405	1302.209229	1370.798462	1232.847412	-101.126389
208.292404	1303.422119	1370.798584	1235.714600	-100.491348
208.669373	1305.406860	1366.718506	1236.486572	-112.409782
209.046310	1302.319336	1363.961670	1236.155640	-107.334831
209.423218	1303.863159	1361.645874	1237.368530	-115.077026
209.800095	1305.737793	1357.124756	1244.205566	-119.742874
210.176956	1308.715210	1353.265137	1244.205566	-144.803024
210.553787	1308.163818	1355.911743	1244.315796	-133.718948
210.930603	1309.597412	1356.242554	1248.836914	-130.261154
211.307358	1315.221313	1353.485718	1251.814331	-165.707489
211.684113	1317.316406	1349.846680	1252.145264	-200.339981
212.060837	1316.985596	1348.413086	1249.057617	-216.141907
212.437531	1316.765015	1350.839233	1248.285767	-200.970856
212.814178	1314.008179	1354.037109	1251.373291	-156.474045
213.190826	1312.574585	1351.280273	1249.719360	-162.392731
213.567413	1313.125977	1352.383057	1251.483765	-157.021896
213.943985	1310.258789	1357.345337	1253.468628	-120.608040
214.320541	1309.266479	1357.124756	1258.982178	-105.069183
214.697052	1307.612305	1361.315186	1254.571289	-98.767540
215.073563	1309.266357	1363.300049	1255.012451	-100.407555
215.449997	1303.863159	1360.874023	1253.248047	-88.781517
215.826431	1301.326904	1362.086914	1250.270630	-84.029404
216.202850	1300.334351	1364.954102	1247.954834	-81.058060
216.579224	1298.459717	1369.695923	1244.867310	-75.231979
216.955582	1300.885742	1374.989014	1244.205566	-76.488091
217.331894	1300.554932	1374.217041	1245.969849	-74.101982
217.708191	1300.003418	1376.863647	1242.661743	-74.605133
218.084442	1300.113770	1383.480103	1246.631470	-64.153358
218.460678	1296.915771	1384.141602	1245.749268	-58.659809
218.836899	1295.041260	1385.685303	1243.984985	-56.326122
219.213074	1292.615234	1387.339478	1242.110352	-53.317799
219.589233	1294.269287	1392.191650	1245.418579	-49.887184
219.965347	1296.805542	1398.697510	1246.852173	-49.025818
220.341431	1295.592529	1399.359131	1248.837036	-45.058327
220.717499	1296.254150	1400.241455	1243.433716	-50.795078
221.093552	1295.041260	1402.336548	1248.616577	-43.268147
221.469543	1299.011108	1407.078247	1248.175537	-47.040730
221.845535	1302.980835	1407.409058	1245.529053	-55.015572
222.221466	1305.296631	1411.709595	1244.095459	-57.512890
222.597397	1305.186279	1417.884766	1248.285767	-50.489155
222.973297	1302.760376	1426.706543	1246.631714	-45.284710
223.349167	1300.554932	1437.403076	1246.962524	-39.161953
223.725006	1297.467285	1446.996826	1251.704224	-30.604696
224.100800	1295.041260	1454.385010	1252.586304	-26.643627
224.476578	1295.372070	1465.081543	1255.453369	-23.521788
224.852325	1297.577515	1475.778076	1256.114990	-23.267336
225.228058	1298.680298	1495.847778	1253.909546	-22.706966
225.603760	1297.577637	1523.195313	1254.791626	-18.963945
225.979416	1295.261963	1552.086792	1258.761475	-14.212212
226.355057	1295.372192	1590.351318	1264.164917	-10.579486
226.730652	1296.805664	1642.069214	1267.142334	-8.591503
227.106232	1296.915894	1691.912231	1273.648315	-5.890581
227.481796	1294.159180	1736.903687	1277.287354	-3.810736
227.857315	1292.946167	1778.145630	1276.736084	-3.340911
228.232788	1296.033813	1815.638184	1279.933838	-3.098507
228.608246	1296.695435	1848.058350	1283.903687	-2.320023
228.983704	1297.026245	1883.345459	1286.109131	-1.861974
229.359100	1297.577637	1916.206665	1293.497437	-0.659555
229.734482	1293.166748	1945.870117	1300.885742	1.182619
230.109833	1290.189453	1973.768921	1304.414429	2.080954
230.485153	1290.189331	1989.979126	1303.642456	1.922452
230.860443	1289.527710	2012.585205	1308.053467	2.562142
231.235703	1293.166748	2031.331421	1311.913086	2.539587
231.610931	1293.607788	2055.481445	1314.228760	2.706613
231.986145	1293.056396	2079.300049	1317.206055	3.071523
232.361313	1290.189209	2098.708252	1319.411499	3.614298
232.736465	1287.983765	2121.313965	1322.499146	4.141861
233.111572	1285.888550	2134.656982	1326.027832	4.729121
233.486664	1288.865845	2141.052734	1332.644287	5.137188
233.861725	1290.409668	2141.604248	1331.982666	4.884077
234.236755	1292.284302	2138.957520	1335.511475	5.105532
234.611771	1296.474731	2120.873047	1340.032593	5.283594
234.986740	1298.900635	2101.023926	1344.553711	5.691528
235.361679	1299.782959	2083.710938	1348.633911	6.231561
235.736588	1298.570068	2073.235107	1355.801636	7.387911
236.111496	1297.908447	2069.375488	1362.307617	8.347624
236.486343	1298.459717	2071.139893	1372.673340	9.604701
236.861160	1301.106323	2071.250000	1377.194458	9.879732
237.235962	1300.334351	2079.961426	1379.620483	10.169751
237.610733	1302.760376	2089.996338	1387.560059	10.771825
237.985474	1301.437134	2106.978271	1398.146240	12.005484
238.360199	1300.665283	2140.501221	1413.032959	13.379718
238.734879	1301.767944	2177.662842	1429.794434	14.616650
239.109543	1300.334473	2227.616455	1444.791382	15.578531
239.484177	1304.635132	2281.650146	1465.743164	16.489822
239.858749	1310.810303	2350.680908	1489.451782	17.179203
240.233322	1311.361694	2434.047119	1521.100098	18.681850
240.607864	1313.126099	2511.899414	1553.520142	20.053337
240.982391	1314.559570	2592.618896	1585.499268	21.199305
241.356857	1316.213745	2651.063232	1612.516235	22.197445
241.731308	1315.000610	2704.435059	1635.011719	23.031754
242.105728	1317.977905	2744.684814	1653.978394	23.550772
242.480118	1312.354126	2785.926758	1672.724854	24.455580
242.854492	1310.479492	2835.880127	1693.125366	25.084942
243.228836	1309.045898	2893.442383	1716.172485	25.696005
243.603134	1312.905518	2957.290283	1744.181763	26.227209
243.977402	1312.023193	3046.721436	1775.057861	26.692520
244.351654	1310.920532	3168.241699	1823.467651	27.596041
244.725861	1310.810303	3315.235107	1882.132568	28.503054
245.100067	1311.912964	3466.970215	1943.223633	29.294382
245.474213	1311.361694	3603.377197	1999.683228	30.031277
245.848343	1316.985474	3710.341553	2048.864990	30.579636
246.222443	1318.198486	3794.700195	2091.650635	31.231642
246.596512	1318.419067	3855.019287	2125.504395	31.817602
246.970566	1321.286133	3892.181641	2150.977295	32.272457
247.344574	1320.845093	3904.862793	2162.445801	32.569466
247.718567	1317.206055	3891.740234	2171.377441	33.177708
248.092529	1318.749756	3859.430420	2171.598145	33.567715
248.466431	1315.441650	3833.075195	2171.708252	34.010773
248.840332	1313.236206	3807.051025	2168.179443	34.282547
249.214203	1311.030640	3809.476563	2173.803467	34.532383
249.588043	1313.787598	3825.797363	2188.359619	34.815628
249.961838	1310.038330	3853.696045	2207.877686	35.297176
250.335617	1313.677124	3886.888428	2225.521484	35.436047
250.709381	1313.456665	3901.664795	2236.438232	35.661026
251.083084	1318.198608	3899.569824	2236.658936	35.580330
251.456787	1314.780029	3882.367188	2231.586182	35.706913
251.830460	1316.434204	3829.656738	2219.346191	35.926464
252.204071	1313.456787	3746.069824	2187.477295	35.929287
252.577667	1310.038452	3638.995117	2154.726318	36.268940
252.951248	1310.369263	3513.615234	2114.807861	36.511517
253.324799	1308.604858	3406.099365	2073.896484	36.485989
253.698303	1305.737671	3326.152100	2041.145630	36.398869
254.071793	1305.296631	3267.817627	2014.239014	36.124065
254.445236	1304.083618	3233.853760	1996.815796	35.897133
254.818665	1300.113770	3219.959473	1989.979004	35.933369
255.192062	1300.003418	3219.077393	1995.713135	36.252365
255.565430	1300.444458	3243.888672	2003.542603	36.177944
255.938782	1301.878052	3283.365967	2018.319214	36.156727
256.312103	1304.745117	3340.266846	2039.050537	36.074554
256.685364	1306.730225	3419.442383	2070.147461	36.134464
257.058594	1304.965820	3518.357178	2100.582520	35.945595
257.431793	1302.098633	3646.714600	2145.573730	35.974979
257.804993	1302.760254	3790.178955	2192.990967	35.789337
258.178162	1299.672729	3928.240234	2242.282471	35.860207
258.551270	1298.128906	4052.517578	2283.414307	35.771473
258.924377	1294.379639	4145.587402	2322.229980	36.049648
259.297485	1293.938599	4222.999023	2350.349609	36.066547
259.670502	1293.056396	4286.625977	2371.963135	36.040810
260.043518	1295.151489	4346.063477	2396.333252	36.093525
260.416473	1298.569946	4394.473145	2410.227783	35.907383
260.789459	1297.026123	4449.830078	2431.841553	35.993847
261.162354	1297.246704	4497.467773	2452.462402	36.097996
261.535278	1298.349365	4541.796875	2468.231445	36.069092
261.908142	1298.790527	4576.092285	2484.552002	36.181026
262.280975	1301.216553	4595.279297	2493.042969	36.181049
262.653717	1302.870605	4609.834961	2496.130615	36.083244
263.026520	1300.113892	4627.809570	2493.925049	35.875008
263.399261	1297.357056	4643.688477	2497.453613	35.863049
263.771973	1296.915894	4654.495605	2498.997314	35.802025
264.144653	1298.239258	4653.502930	2491.609131	35.567097
264.517334	1301.106323	4633.103027	2480.140869	35.385227
264.889954	1302.208862	4586.678223	2465.474609	35.417160
265.262543	1305.627563	4506.179199	2429.084473	35.101974
265.635071	1308.053589	4405.610840	2388.283936	34.873623
266.007599	1311.802856	4310.224609	2343.402832	34.404766
266.380127	1312.133545	4240.201660	2314.070068	34.218346
266.752594	1315.882935	4205.575684	2291.905273	33.775990
267.125031	1315.000732	4197.084473	2277.569824	33.398373
267.497437	1313.236328	4212.963867	2282.642578	33.430943
267.869843	1316.544556	4239.098633	2289.590088	33.294353
268.242218	1313.567261	4277.473633	2302.271240	33.358139
268.614532	1311.913208	4335.697754	2311.423828	33.054955
268.986816	1312.354126	4430.973633	2335.242676	32.799400
269.359100	1311.471924	4539.150879	2364.685547	32.630680
269.731354	1310.038452	4652.510742	2385.196045	32.166538
270.103516	1311.030762	4749.219727	2406.919922	31.874023
270.475708	1311.361572	4830.049805	2428.753906	31.755934
270.847839	1314.890381	4902.499023	2446.838623	31.551609
271.219971	1318.419067	4961.053711	2459.409668	31.323223
271.592041	1320.403809	5006.596191	2467.679932	31.123610
271.964081	1321.065552	5036.369629	2473.634521	31.022196
272.336151	1316.434204	5064.048340	2476.391846	30.951895
272.708130	1316.654785	5090.182129	2479.038086	30.803627
273.080109	1313.015869	5107.385254	2482.235596	30.814600
273.452026	1311.582275	5141.238770	2483.779785	30.608425
273.823914	1310.369263	5176.085449	2488.411133	30.474091
274.195770	1310.369263	5215.893555	2494.476074	30.318766
274.567627	1309.376831	5261.987793	2509.473145	30.362116
274.939423	1310.700073	5304.332031	2530.866211	30.552795
275.311249	1312.243896	5345.464355	2533.623047	30.282974
275.682983	1310.479492	5376.120117	2531.968994	30.044207
276.054688	1309.707520	5401.151855	2529.432373	29.811596
276.426422	1307.943115	5403.577148	2526.234619	29.746103
276.798065	1312.243896	5370.495117	2510.575928	29.528286
277.169708	1313.236206	5325.172852	2489.955078	29.330446
277.541321	1317.757446	5277.536133	2479.699707	29.343615
277.912903	1316.985352	5267.832031	2477.714844	29.379259
278.284424	1316.764893	5279.741211	2482.897705	29.425682
278.655945	1315.882813	5301.685547	2492.490967	29.519979
279.027435	1312.574707	5332.010254	2504.621094	29.657059
279.398865	1310.920532	5391.226563	2522.375244	29.690290
279.770294	1307.502075	5467.424805	2547.296875	29.803312
280.141663	1310.810303	5539.763672	2576.408447	29.926985
280.513031	1313.015869	5615.631348	2603.645996	29.996410
280.884369	1315.993164	5680.912598	2625.920898	30.010353
281.255676	1314.559570	5725.462402	2648.085693	30.232498
281.626953	1313.787720	5763.727051	2674.661377	30.581846
281.998199	1316.654907	5805.189453	2694.179443	30.689850
282.369385	1313.346680	5856.245605	2713.587646	30.822630
282.740540	1313.236328	5915.572754	2730.459229	30.793552
283.111694	1311.802856	5983.280273	2752.734375	30.845306
283.482819	1310.479492	6070.064941	2790.447754	31.094479
283.853912	1314.559570	6165.339844	2830.035645	31.241903
284.224945	1315.441772	6257.858398	2870.836426	31.470327
284.595978	1313.346436	6348.502930	2912.519531	31.760149
284.966980	1311.030762	6425.914551	2954.423096	32.129612
285.337952	1309.817749	6500.238281	2990.041016	32.371620
285.708893	1306.730103	6535.746094	3023.012695	32.822285
286.079803	1305.406860	6558.352051	3052.565674	33.260555
286.450684	1304.745239	6574.893066	3078.148926	33.649979
286.821533	1307.391846	6588.677246	3103.180908	34.002880
287.192322	1306.399414	6596.506836	3128.543457	34.444366
287.563110	1307.391968	6602.571289	3157.766113	34.944504
287.933868	1303.642700	6627.272461	3195.369141	35.534523
288.304596	1299.672852	6668.735352	3241.904053	36.174496
288.675262	1300.885742	6725.304199	3301.561279	36.882767
289.045929	1301.326782	6777.683594	3359.455078	37.582073
289.416565	1300.113770	6826.645020	3409.959717	38.176678
289.787170	1296.805664	6843.957520	3456.715088	38.937267
290.157745	1293.718018	6845.170898	3497.736328	39.701645
290.528259	1293.497437	6840.870605	3538.206543	40.464359
290.898773	1294.820801	6830.614746	3582.094971	41.317905
291.269226	1294.269287	6813.852539	3615.728027	42.058590
291.639679	1290.630371	6797.202148	3666.673828	43.149231
292.010101	1294.820801	6810.876465	3723.573975	44.030613
292.380463	1293.828369	6840.539551	3789.406982	44.992043
292.750824	1298.680298	6882.332031	3848.182373	45.660118
293.121155	1300.775391	6928.756836	3919.639160	46.532913
293.491455	1307.502197	6990.068359	3988.890625	47.186222
293.861725	1310.920532	7072.000977	4062.222168	47.756695
294.231964	1313.125977	7184.479004	4157.166504	48.439270
294.602142	1314.669678	7298.721680	4253.544434	49.111786
294.972321	1314.669800	7398.077148	4343.857910	49.794266
295.342468	1316.213623	7496.991699	4425.790039	50.310432
295.712555	1317.095825	7559.295410	4486.881348	50.779945
296.082672	1318.419067	7583.776855	4531.652344	51.285713
296.452728	1315.882813	7585.761719	4557.455566	51.700722
296.822693	1319.080688	7589.400879	4584.031250	52.069920
297.192657	1321.065552	7589.180664	4610.827148	52.484066
297.562622	1322.388916	7606.824219	4638.616211	52.768898
297.932556	1326.027954	7627.886230	4667.618164	53.025475
298.302460	1328.233398	7634.833496	4690.996094	53.321323
298.672333	1327.792358	7640.347656	4709.631836	53.573223
299.042145	1329.005127	7636.597656	4727.716309	53.882858
299.411957	1330.218140	7623.033691	4726.062500	53.963829
299.781677	1326.027954	7584.768555	4727.165039	54.342197
300.151428	1326.579224	7523.125977	4712.609375	54.643826
300.521149	1326.248291	7458.727051	4690.113281	54.853271
300.890839	1322.829956	7386.829590	4658.795898	55.012634
301.260468	1317.095825	7310.961914	4624.611328	55.181671
301.630096	1318.418945	7223.515625	4584.913574	55.316532
301.999695	1319.080688	7102.436523	4529.777344	55.516155
302.369232	1316.323975	6976.063965	4466.591309	55.660988
302.738739	1314.449219	6859.727051	4404.066895	55.716194
303.108246	1310.699951	6722.106445	4336.249512	55.910599
303.477692	1311.251343	6610.841309	4279.458984	56.008251
303.847137	1311.361816	6522.182129	4237.445313	56.153988
304.216553	1311.361572	6456.680176	4206.678711	56.270905
304.585876	1310.369141	6397.794434	4174.258789	56.293499
304.955231	1309.597046	6350.267090	4156.284180	56.474377
305.324493	1306.619751	6311.010254	4141.397461	56.645813
305.693787	1306.178711	6280.244629	4124.084473	56.651958
306.063049	1306.509521	6274.399414	4119.012207	56.613632
306.432251	1307.391846	6272.414551	4124.966797	56.748482
306.801422	1305.627319	6267.783691	4126.400391	56.845711
307.170593	1304.524658	6268.334961	4130.921875	56.940071
307.539673	1303.642456	6275.171875	4126.510742	56.780682
307.908783	1304.304077	6290.831055	4134.119629	56.749226
308.277832	1302.650146	6307.150879	4151.321777	56.922192
308.646851	1300.444702	6338.357910	4175.030273	57.059052
309.015839	1303.973389	6378.717773	4198.849121	57.044762
309.384796	1298.239258	6410.586914	4218.698242	57.125595
309.753723	1295.151733	6446.205566	4232.372070	57.021736
310.122620	1294.600220	6472.339844	4253.324219	57.143162
310.491486	1296.144165	6484.690430	4257.955566	57.083649
310.860352	1299.342041	6501.231445	4270.967773	57.125889
311.229126	1299.452148	6515.456055	4289.493164	57.324364
311.597931	1298.680298	6523.726074	4296.109863	57.366573
311.966675	1300.224121	6544.016602	4308.239258	57.363354
312.335388	1300.665161	6579.523926	4330.734863	57.400093
312.704071	1298.680298	6617.236816	4348.819824	57.349010
313.072723	1301.326904	6632.564941	4362.934570	57.427704
313.441345	1301.988525	6630.139160	4374.072266	57.657600
313.809875	1302.650146	6611.061523	4365.140137	57.691273
314.178436	1298.459839	6573.018066	4351.025879	57.873398
314.546967	1304.193970	6535.194824	4332.058594	57.883083
314.915466	1304.635132	6494.283691	4314.966309	58.006454
315.283936	1308.604858	6440.911621	4288.280273	58.057236
315.652374	1309.266602	6398.125977	4259.830078	57.980843
316.020752	1307.943237	6345.084961	4233.474609	58.079193
316.389130	1313.236328	6299.542480	4206.678223	58.027763
316.757416	1313.346680	6259.072266	4181.866699	57.999985
317.125732	1312.574585	6233.378418	4164.884766	57.964314
317.494019	1313.126099	6201.399414	4153.196289	58.099663
317.862274	1315.441895	6169.530762	4123.312500	57.845470
318.230469	1314.338989	6137.441406	4111.733398	57.999897
318.598663	1315.441772	6109.211914	4097.618652	58.037342
318.966797	1315.221069	6076.571289	4072.476074	57.909100
319.334930	1314.449341	6049.113281	4053.510010	57.851212
319.703003	1310.148682	6018.347656	4035.866455	57.893002
320.071045	1307.612305	5975.341309	4011.496338	57.927185
320.439056	1306.178711	5939.722656	3989.662109	57.914276
320.807037	1306.399292	5937.627441	3979.517578	57.719425
321.175049	1305.296631	5958.910156	3977.312012	57.418079
321.542969	1301.878052	5990.778809	3996.830078	57.475136
321.910828	1306.178711	6035.219238	4013.040527	57.239132
322.278717	1304.965820	6093.112305	4042.372803	57.170494
322.646515	1308.053345	6142.183594	4059.354980	56.914101
323.014313	1307.501953	6192.908691	4087.474365	56.903603
323.382111	1304.855469	6229.739746	4105.338379	56.863934
323.749817	1304.745117	6278.259766	4126.730469	56.740265
324.117523	1303.752808	6305.828125	4141.176270	56.724922
324.485199	1301.326782	6320.052734	4144.264160	56.646595
324.852814	1304.193970	6319.501465	4145.808105	56.658821
325.220428	1306.399292	6317.957520	4147.682617	56.694607
325.588013	1305.075928	6324.794434	4153.747559	56.749626
325.955536	1308.384155	6334.498535	4157.055664	56.677410
326.323059	1308.825317	6352.804199	4164.665039	56.618790
326.690552	1309.597168	6376.622070	4180.654297	56.661594
327.058014	1311.030640	6396.030273	4189.696777	56.610939
327.425415	1314.338989	6409.152344	4196.754395	56.575485
327.792816	1317.977905	6423.708984	4207.341309	56.590591
328.160187	1320.955322	6430.545410	4205.797363	56.459366
328.527496	1321.837646	6416.541504	4197.967773	56.453331
328.894775	1322.940430	6410.255859	4192.674805	56.409603
329.262054	1325.697144	6391.839844	4182.529297	56.390675
329.629303	1323.712280	6378.275879	4178.780273	56.484955
329.996490	1321.837646	6364.161621	4165.436523	56.394608
330.363647	1317.977905	6370.558105	4166.870605	56.384907
330.730774	1316.985718	6381.474609	4173.266113	56.398197
331.097839	1316.544434	6412.020020	4190.468750	56.401493
331.464935	1316.103394	6438.044434	4205.686523	56.415783
331.831970	1312.353882	6459.437500	4216.934082	56.431572
332.198975	1311.802490	6487.336426	4237.113770	56.521919
332.565948	1311.582153	6516.007324	4253.103516	56.519623
332.932892	1304.965698	6553.610352	4269.864746	56.488850
333.299744	1305.406860	6581.950195	4288.060059	56.526649
333.666656	1301.878174	6619.553711	4311.437988	56.595398
334.033478	1300.444702	6650.540039	4332.169434	56.666740
334.400299	1300.665283	6674.027344	4344.188965	56.640953
334.767090	1298.570068	6710.527344	4359.517090	56.558968
335.133850	1299.562622	6735.669434	4375.947754	56.591698
335.500549	1296.805786	6758.166016	4388.187012	56.604603
335.867218	1291.622803	6781.985352	4410.462402	56.805717
336.233917	1292.725586	6818.154785	4431.634766	56.808422
336.600525	1292.505005	6834.694824	4443.654297	56.857479
336.967102	1293.938599	6855.757324	4455.232910	56.839218
337.333649	1296.915894	6867.004395	4456.335938	56.721180
337.700195	1294.269287	6866.563965	4466.591309	56.930260
338.066681	1296.254150	6856.970215	4464.165039	56.969479
338.433136	1295.813110	6847.266602	4450.822266	56.832130
338.799591	1296.254272	6825.983398	4429.539551	56.662544
339.165985	1296.584961	6811.758789	4420.056152	56.634140
339.532318	1300.775391	6816.390625	4419.614746	56.545631
339.898651	1300.995972	6828.851074	4426.893066	56.548100
340.264954	1300.444580	6846.163574	4439.905273	56.610527
340.631226	1305.627319	6861.712891	4449.719727	56.588264
340.997467	1305.406860	6901.410645	4467.363281	56.503830
341.363678	1306.840454	6942.652344	4486.881836	56.425613
341.729828	1308.274048	6995.914551	4509.818359	56.289501
342.095947	1305.627563	7056.674316	4550.177246	56.416683
342.462067	1306.178833	7114.677734	4587.891113	56.498459
342.828156	1305.076050	7183.377441	4623.508789	56.452236
343.194183	1304.414551	7254.171875	4666.625977	56.510059
343.560211	1309.597290	7313.718750	4685.702148	56.229790
343.926178	1311.582275	7371.282227	4713.381348	56.138077
344.292114	1310.259155	7404.143066	4742.604004	56.324421
344.658020	1307.502197	7440.643066	4757.050293	56.244400
345.023926	1307.943237	7478.025391	4777.450684	56.231136
345.389771	1309.817871	7515.187500	4790.682617	56.094398
345.755585	1307.061157	7535.036621	4801.709473	56.112110
346.121368	1309.376953	7556.099121	4826.190430	56.298542
346.487122	1309.707642	7582.233398	4849.788086	56.437878
346.852844	1309.597412	7608.037109	4865.447266	56.456047
347.218536	1308.163818	7628.216309	4881.326172	56.536907
347.584167	1309.487061	7650.822266	4890.589355	56.472374
347.949768	1309.487061	7669.127930	4906.137695	56.554306
348.315369	1310.259033	7693.718750	4924.222656	56.614494
348.680939	1312.684937	7708.384766	4938.116211	56.685452
349.046448	1312.464478	7717.426270	4942.196777	56.670631
349.411957	1310.810303	7721.727051	4939.549805	56.602505
349.777435	1313.677490	7716.654785	4934.477539	56.548691
350.142792	1315.772705	7705.848145	4931.500488	56.583492
350.508209	1317.757568	7707.170898	4935.028809	56.613514
350.873566	1320.734985	7710.369629	4929.405273	56.476944
351.238892	1324.153320	7723.822754	4950.578125	56.665813
351.604187	1317.647217	7751.722656	4971.419434	56.787838
351.969482	1319.521973	7817.224609	4995.238281	56.569477
352.334717	1317.647339	7876.330566	5034.385254	56.668964
352.699890	1318.308838	7959.255371	5084.228516	56.707577
353.065063	1317.647217	8043.062500	5134.291992	56.749580
353.430237	1317.095825	8157.305176	5201.778809	56.791874
353.795319	1313.456787	8287.425781	5256.363281	56.537483
354.160370	1313.897827	8413.466797	5325.614746	56.506485
354.525421	1315.441650	8548.000977	5409.200684	56.601803
354.890442	1315.993164	8704.146484	5499.734863	56.627705
355.255402	1310.589600	8870.106445	5607.140137	56.836315
355.620331	1311.912964	9055.035156	5703.518555	56.716209
355.985260	1311.913086	9232.242188	5790.413086	56.544369
356.350098	1310.699951	9388.499023	5875.984863	56.516449
356.714935	1313.015869	9533.837891	5966.959961	56.611664
357.079742	1313.456909	9660.432617	6049.222656	56.736305
357.444519	1311.361694	9805.770508	6128.178223	56.705727
357.809296	1311.030762	9967.540039	6223.123535	56.744495
358.173981	1309.266479	10156.877930	6325.015625	56.690430
358.538605	1307.171265	10367.388672	6445.102051	56.708687
358.903259	1303.091187	10606.127930	6581.508789	56.738647
359.267914	1305.958008	10871.113281	6726.296875	56.667545
359.632477	1302.208740	11147.125000	6891.375000	56.772106
359.997009	1303.091064	11412.661133	7044.543945	56.792255
360.361542	1299.893188	11615.783203	7151.067871	56.720020
360.726013	1303.201416	11769.945313	7243.916504	56.758003
361.090485	1304.304321	11863.676758	7305.448730	56.832401
361.454895	1310.259033	11911.866211	7356.063477	57.027245
361.819244	1311.251343	11933.588867	7371.501465	57.051941
362.183594	1308.935791	11933.038086	7363.120605	56.985374
362.547913	1305.958374	11891.907227	7331.141602	56.916798
362.912201	1310.148682	11832.580078	7292.877441	56.856899
363.276489	1311.692383	11753.514648	7250.091309	56.871288
363.640686	1309.045898	11666.289063	7203.997559	56.916222
364.004883	1308.053467	11603.984375	7165.402344	56.889938
364.369049	1307.502075	11540.247070	7132.319824	56.923317
364.733154	1305.627319	11501.651367	7100.120605	56.830906
365.097198	1305.296631	11440.780273	7060.422852	56.781960
365.461273	1304.855469	11349.916992	7004.846191	56.744209
365.825287	1303.863037	11219.022461	6931.514648	56.758053
366.189270	1305.517212	11049.423828	6839.216309	56.791386
366.553223	1306.509644	10853.798828	6724.091309	56.744709
366.917114	1304.083740	10603.810547	6588.787109	56.826435
367.281006	1309.156250	10322.946289	6428.119629	56.790356
367.644867	1308.715088	10066.894531	6279.582520	56.756855
368.008698	1311.251465	9856.163086	6166.443359	56.819683
368.372498	1305.958374	9704.648438	6074.806641	56.780853
368.736237	1305.075928	9600.442383	6006.106934	56.670570
369.099976	1302.429565	9538.358398	5958.799805	56.537281
369.463654	1301.988525	9494.360352	5932.885742	56.526943
369.827332	1302.208862	9463.153320	5913.147461	56.500061
370.190948	1304.193848	9440.435547	5905.317871	56.550976
370.554535	1302.650146	9416.837891	5889.990234	56.534801
370.918091	1301.106445	9393.791016	5882.381348	56.610077
371.281647	1303.091309	9380.999023	5877.639648	56.630360
371.645111	1305.848267	9366.443359	5871.354004	56.639809
372.008575	1305.186523	9363.686523	5860.436523	56.527267
372.371979	1305.406982	9347.367188	5861.870117	56.658611
372.735382	1308.604858	9362.143555	5868.596680	56.620972
373.098724	1308.384155	9392.909180	5883.042480	56.585369
373.462067	1307.501953	9422.242188	5912.043945	56.742939
373.825348	1305.847900	9491.492188	5946.889648	56.697330
374.188599	1304.855347	9567.139648	5990.227051	56.707947
374.551819	1305.517090	9684.690430	6052.420898	56.651215
374.915009	1303.091187	9826.390625	6128.067871	56.609257
375.278168	1303.532227	9977.463867	6210.993164	56.577122
375.641266	1299.672729	10109.459961	6281.677734	56.550797
376.004395	1302.319214	10216.204102	6342.548340	56.543575
376.367462	1305.296631	10289.535156	6386.547852	56.557392
376.730469	1302.980957	10335.959961	6409.925781	56.536667
377.093475	1300.995972	10366.173828	6439.588379	56.684959
377.456421	1299.672852	10399.367188	6458.666016	56.694138
377.819336	1303.201538	10434.763672	6479.176270	56.682243
378.182281	1304.304199	10477.661133	6494.393555	56.577862
378.545135	1306.619873	10523.974609	6513.250977	56.487259
378.907928	1304.965820	10570.621094	6534.863770	56.443909
379.270752	1303.752808	10610.319336	6565.630371	56.539406
379.633484	1304.304077	10644.283203	6586.582031	56.555561
379.996246	1308.604858	10675.931641	6609.187500	56.585857
380.358948	1305.737671	10694.016602	6625.066406	56.659248
380.721558	1306.509521	10717.394531	6636.865234	56.640324
381.084198	1307.281494	10758.856445	6649.325684	56.520145
381.446747	1309.156006	10778.814453	6665.756836	56.565933
381.809326	1310.589722	10797.670898	6671.271484	56.505070
382.171875	1312.574707	10791.716797	6663.552246	56.450016
382.534363	1312.354126	10755.877930	6653.186523	56.555508
382.896790	1311.361572	10704.710938	6628.927246	56.609898
383.259247	1315.441772	10669.204102	6614.371094	56.650242
383.621613	1316.544556	10660.161133	6613.708984	56.692875
383.983948	1316.765015	10687.950195	6628.706055	56.683765
384.346283	1317.647217	10738.124023	6663.552246	56.747715
384.708588	1315.772705	10823.144531	6692.002441	56.548008
385.070831	1320.073242	10899.012695	6739.971191	56.581398
385.433075	1315.662354	10992.963867	6791.688965	56.586292
385.795258	1316.765015	11075.448242	6847.156250	56.671486
386.157440	1312.133667	11151.536133	6887.184570	56.660461
386.519531	1312.795288	11244.496094	6941.549316	56.674622
386.881622	1310.810303	11316.504883	6974.079102	56.600456
387.243683	1310.700073	11391.710938	7022.268066	56.656700
387.605713	1307.391724	11473.091797	7062.297852	56.611015
387.967682	1309.817749	11555.907227	7116.441406	56.671604
388.329651	1307.832886	11652.283203	7170.144531	56.671078
388.691559	1308.053345	11748.441406	7234.543945	56.765045
389.053467	1303.752686	11868.749023	7303.133301	56.785454
389.415314	1301.326782	11987.513672	7380.985352	56.892689
389.777130	1303.752808	12107.820313	7457.074219	56.953747
390.138885	1299.782959	12230.442383	7512.100586	56.833878
390.500641	1300.665039	12323.181641	7560.067871	56.787422
390.862366	1296.584961	12410.408203	7604.618164	56.758446
391.224060	1296.364502	12484.620117	7639.575195	56.695263
391.585693	1297.246704	12571.514648	7683.132324	56.641247
391.947296	1298.569946	12659.623047	7734.078125	56.645351
392.308868	1304.524658	12724.023438	7789.436035	56.788052
392.670441	1304.304077	12789.525391	7829.133789	56.810654
393.031952	1307.171265	12819.077148	7852.290039	56.855213
393.393433	1306.399414	12846.205078	7859.458984	56.786568
393.754883	1308.494507	12861.644531	7870.596191	56.799240
394.116302	1307.502075	12850.395508	7867.728516	56.833466
394.477692	1311.141113	12853.373047	7876.550781	56.881626
394.839020	1310.589722	12852.491211	7871.919434	56.847908
395.200348	1310.589722	12851.718750	7868.059570	56.818268
395.561646	1308.825317	12834.958008	7859.349121	56.831932
395.922882	1312.574585	12799.230469	7842.145996	56.844841
396.284088	1313.787476	12739.682617	7799.580566	56.763981
396.645264	1316.103271	12662.161133	7744.996094	56.661907
397.006409	1316.985474	12567.545898	7688.314941	56.631218
397.367523	1312.905396	12464.992188	7628.768066	56.633911
397.728577	1317.426514	12368.834961	7576.939941	56.639965
398.089600	1319.080688	12297.267578	7541.762695	56.682240
398.450592	1319.631958	12241.248047	7510.665039	56.686054
398.811584	1319.631958	12182.804688	7477.252441	56.683445
399.172546	1317.536865	12098.225586	7439.428711	56.785721
399.533447	1316.323853	12017.835938	7382.198730	56.682411
399.894318	1310.479492	11962.148438	7337.979004	56.587372
400.255127	1308.935791	11911.533203	7306.992676	56.571575
400.615936	1307.502197	11882.752930	7289.348145	56.564575
400.976685	1307.171387	11886.833008	7292.766602	56.576431
401.337433	1305.517212	11916.826172	7304.565430	56.534481
401.698151	1304.745483	11971.852539	7344.042969	56.616074
402.058807	1301.657715	12056.542969	7386.167480	56.574383
402.419434	1299.672729	12151.487305	7444.722656	56.626934
402.780060	1297.467285	12260.105469	7503.607910	56.611740
403.140594	1296.364624	12359.020508	7565.581055	56.670082
403.501129	1292.394775	12453.856445	7627.885254	56.762192
403.861633	1291.181763	12540.641602	7691.072754	56.890652
404.222076	1289.196777	12626.102539	7749.736816	56.986801
404.582550	1287.983765	12698.000000	7795.170410	57.030476
404.942932	1289.307007	12768.574219	7839.718750	57.062977
405.303284	1293.607666	12843.891602	7891.215820	57.120747
405.663605	1292.174316	12899.579102	7928.046875	57.169308
406.023895	1293.056396	12936.077148	7956.167480	57.228374
406.384125	1290.409912	12989.669922	7991.564941	57.278454
406.744354	1290.850952	13056.826172	8034.020996	57.310760
407.104553	1291.291992	13123.429688	8091.693359	57.473988
407.464691	1296.364624	13183.198242	8127.862305	57.471127
407.824829	1296.916016	13253.110352	8165.686035	57.449467
408.184906	1296.805664	13333.279297	8219.057617	57.510632
408.544922	1298.129028	13397.016602	8251.477539	57.470974
408.904938	1299.562500	13444.985352	8283.566406	57.503178
409.264923	1300.224121	13466.709961	8289.080078	57.443504
409.624847	1298.239258	13452.485352	8288.307617	57.511330
409.984802	1301.437256	13428.113281	8268.127930	57.449299
410.344666	1303.091187	13393.708008	8256.438477	57.510273
410.704529	1305.076050	13355.223633	8229.862305	57.466400
411.064331	1307.612305	13323.023438	8213.874023	57.478363
411.424133	1306.399414	13317.508789	8197.773438	57.375000
411.783875	1306.509644	13312.107422	8200.641602	57.424313
412.143555	1310.369263	13321.479492	8198.657227	57.349304
412.503235	1308.274048	13338.792969	8214.756836	57.408024
412.862885	1304.635010	13348.716797	8225.232422	57.460567
413.222473	1305.406860	13404.625000	8254.675781	57.435688
413.582062	1303.642578	13483.800781	8294.263672	57.393517
413.941559	1302.870605	13553.383789	8342.452148	57.463562
414.301086	1304.855591	13638.513672	8382.812500	57.387329
414.660522	1306.399414	13709.198242	8419.533203	57.351036
415.019958	1303.863037	13795.209961	8472.463867	57.388535
415.379364	1302.429688	13906.364258	8540.833008	57.429710
415.738708	1300.555054	14027.223633	8595.197266	57.317764
416.098053	1300.996216	14169.366211	8690.804688	57.426144
416.457336	1300.996094	14353.409180	8806.039063	57.499275
416.816559	1302.870728	14553.443359	8936.710938	57.611401
417.175812	1306.840454	14794.830078	9068.708008	57.546513
417.535004	1302.319336	15084.958008	9236.322266	57.565197
417.894135	1306.289063	15413.351563	9421.580078	57.526440
418.253265	1303.091187	15806.914063	9640.249023	57.482487
418.612335	1300.775513	16211.945313	9881.416016	57.545052
418.971405	1302.870728	16630.541016	10131.404297	57.598663
419.330414	1304.304077	17066.005859	10383.156250	57.600712
419.689423	1303.642334	17500.701172	10624.653320	57.547554
420.048370	1306.178711	17901.873047	10867.914063	57.615757
420.407257	1306.619751	18312.748047	11103.787109	57.609623
420.766144	1307.281372	18696.716797	11318.929688	57.573166
421.125000	1310.479370	19089.509766	11541.459961	57.545208
421.483795	1311.692383	19479.652344	11757.041992	57.493240
421.842560	1309.817749	19892.181641	11989.276367	57.470940
422.201324	1305.627563	20295.669922	12222.613281	57.487946
422.560028	1306.730225	20666.406250	12434.335938	57.478264
422.918671	1310.259033	21005.935547	12625.879883	57.452312
423.277283	1307.281494	21295.291016	12793.164063	57.463863
423.635925	1306.950806	21519.697266	12917.550781	57.441971
423.994476	1306.178833	21684.664063	13022.529297	57.493729
424.353027	1301.437134	21815.447266	13081.085938	57.422459
424.711487	1299.562500	21918.664063	13153.754883	57.491314
425.069946	1303.422119	21966.853516	13171.951172	57.437359
425.428375	1300.003662	21932.335938	13165.775391	57.510571
425.786743	1302.980957	21839.044922	13111.190430	57.499863
426.145081	1302.650146	21688.634766	13016.908203	57.462311
426.503418	1303.201538	21511.423828	12902.554688	57.399178
426.861725	1303.642578	21295.402344	12766.369141	57.337257
427.219971	1305.958252	21063.716797	12636.466797	57.347137
427.578186	1305.737671	20870.742188	12516.048828	57.297771
427.936371	1306.509521	20683.941406	12394.968750	57.223576
428.294495	1304.524658	20465.931641	12272.235352	57.238548
428.652618	1305.406982	20213.738281	12131.637695	57.256401
429.010712	1308.604858	19949.083984	11980.013672	57.248581
429.368744	1307.502197	19655.095703	11813.060547	57.258511
429.726746	1309.266479	19377.318359	11639.491211	57.173977
430.084717	1308.163818	19099.431641	11471.326172	57.124439
430.442688	1307.060913	18835.882813	11317.495117	57.108425
430.800568	1309.376709	18608.390625	11189.359375	57.112980
431.158417	1306.840454	18434.820313	11091.438477	57.126396
431.516235	1306.068604	18281.431641	10991.420898	57.055347
431.874023	1311.692505	18144.582031	10917.317383	57.064625
432.231812	1313.567261	18015.671875	10828.437500	56.968086
432.589508	1312.574707	17917.308594	10777.712891	57.002651
432.947205	1313.015869	17823.136719	10700.632813	56.859772
433.304840	1313.015747	17743.410156	10651.450195	56.836338
433.662476	1316.213623	17696.322266	10622.007813	56.811554
434.020050	1314.890381	17657.066406	10602.929688	56.834778
434.377594	1312.795166	17623.541016	10582.088867	56.829369
434.735138	1308.825195	17599.613281	10576.464844	56.888836
435.092621	1308.935669	17586.931641	10540.074219	56.709305
435.450043	1307.612305	17582.742188	10533.457031	56.686764
435.807465	1309.707520	17606.451172	10542.611328	56.654900
436.164856	1308.053345	17642.402344	10564.996094	56.671635
436.522156	1303.973267	17711.433594	10609.988281	56.718189
436.879486	1305.737671	17791.822266	10660.932617	56.746014
437.236755	1306.840454	17887.759766	10722.576172	56.786568
437.593994	1306.730225	17994.613281	10789.401367	56.823692
437.951172	1304.635010	18134.107422	10862.291992	56.791187
438.308380	1308.053467	18255.406250	10924.817383	56.744930
438.665497	1306.840454	18378.800781	10992.964844	56.737034
439.022583	1309.266602	18541.562500	11076.330078	56.678825
439.379608	1306.399414	18692.748047	11160.138672	56.675152
439.736633	1303.973389	18803.460938	11229.388672	56.718315
440.093628	1303.311646	18901.603516	11280.885742	56.696266
440.450562	1302.098633	18996.988281	11329.406250	56.667812
440.807495	1300.003540	19074.402344	11377.484375	56.696606
441.164368	1297.687866	19164.937500	11424.791992	56.679703
441.521210	1294.820679	19226.908203	11455.336914	56.661091
441.878021	1295.813232	19294.947266	11503.748047	56.713474
442.234833	1294.820801	19409.521484	11570.352539	56.724819
442.591522	1293.056274	19506.119141	11625.598633	56.731491
442.948242	1294.379517	19605.806641	11693.637695	56.791080
443.304901	1289.748169	19723.906250	11772.592773	56.866413
443.661530	1290.961060	19876.414063	11854.635742	56.838402
444.018127	1295.372070	20038.294922	11928.517578	56.731525
444.374664	1293.717773	20193.007813	12019.602539	56.752850
444.731201	1294.710327	20324.121094	12079.921875	56.676544
445.087738	1294.159058	20459.091797	12153.583008	56.662987
445.444183	1294.048950	20529.777344	12201.442383	56.703823
445.800598	1288.535278	20607.960938	12250.182617	56.738991
446.156982	1294.710449	20632.111328	12270.251953	56.758099
446.513336	1294.379639	20623.511719	12267.383789	56.769253
446.869598	1296.143921	20639.279297	12261.760742	56.689968
447.225891	1296.254272	20655.710938	12268.488281	56.676353
447.582153	1298.569946	20644.904297	12277.750000	56.750698
447.938354	1298.900757	20658.910156	12302.451172	56.836494
448.294495	1300.113892	20673.464844	12297.378906	56.764904
448.650665	1300.775269	20647.441406	12274.663086	56.722370
449.006775	1304.304199	20650.308594	12281.388672	56.740833
449.362823	1304.634888	20653.947266	12281.279297	56.728859
449.718842	1306.068604	20646.886719	12266.612305	56.670528
450.074860	1303.201416	20633.435547	12279.404297	56.782566
450.430817	1299.121338	20615.460938	12255.695313	56.721794
450.786713	1303.091187	20522.720703	12192.398438	56.657223
451.142578	1302.429443	20414.103516	12122.375977	56.614330
451.498444	1299.672852	20259.611328	12044.744141	56.672504
451.854248	1298.790649	20091.447266	11940.867188	56.628910
452.210022	1296.364624	19887.664063	11840.960938	56.717915
452.565765	1297.687866	19641.093750	11695.510742	56.684254
452.921478	1298.790527	19413.382813	11565.500000	56.676456
453.277191	1300.665039	19194.601563	11435.047852	56.635845
453.632813	1293.717896	19016.619141	11327.420898	56.614342
453.988434	1291.953491	18836.214844	11222.331055	56.601856
454.343964	1291.512451	18654.484375	11140.729492	56.725407
454.699524	1291.512451	18502.417969	11045.012695	56.670460
455.054993	1289.858398	18362.921875	10962.859375	56.656509
455.410400	1292.946045	18256.728516	10904.634766	56.660053
455.765839	1292.505005	18209.533203	10879.271484	56.669334
456.121216	1291.843384	18214.494141	10887.431641	56.702629
456.476593	1290.850952	18258.162109	10915.330078	56.723660
456.831909	1292.505005	18381.447266	10975.428711	56.661930
457.187195	1290.299438	18541.011719	11067.397461	56.676483
457.542450	1292.725586	18748.433594	11169.951172	56.584507
457.897644	1294.049072	18936.558594	11297.757813	56.702301
458.252808	1294.710571	19188.201172	11436.479492	56.678539
458.607971	1291.733398	19381.619141	11556.347656	56.742279
458.963013	1290.079224	19505.677734	11620.857422	56.713913
459.318085	1288.755859	19596.982422	11678.088867	56.746803
459.673096	1285.116821	19666.013672	11716.573242	56.751617
460.028076	1286.440063	19745.630859	11781.745117	56.856796
460.383057	1284.786133	19806.941406	11818.797852	56.872490
460.737976	1287.983887	19834.839844	11846.805664	56.930527
461.092865	1292.725586	19855.791016	11865.000000	56.953278
461.447723	1296.916016	19856.453125	11862.793945	56.929642
461.802551	1298.239258	19856.453125	11848.899414	56.851696
462.157288	1297.467407	19858.546875	11858.713867	56.899956
462.512054	1300.224121	19875.419922	11861.029297	56.854340
462.866760	1298.349487	19855.460938	11844.929688	56.833092
463.221405	1300.224121	19807.162109	11821.332031	56.849533
463.576019	1303.091187	19712.216797	11775.017578	56.884434
463.930603	1302.539917	19614.736328	11706.648438	56.815182
464.285156	1299.121338	19475.904297	11622.510742	56.794373
464.639709	1298.128906	19264.953125	11509.701172	56.835712
464.994171	1297.908203	19023.126953	11382.335938	56.893108
465.348633	1296.584961	18747.886719	11224.095703	56.886940
465.703033	1295.923462	18464.816406	11070.043945	56.929241
466.057434	1298.790649	18214.716797	10935.179688	56.966370
466.411774	1299.562622	18037.949219	10829.980469	56.937492
466.766083	1301.106445	17885.222656	10733.713867	56.877357
467.120331	1305.737793	17779.470703	10665.344727	56.815342
467.474548	1301.106445	17689.046875	10602.820313	56.759502
467.828735	1303.752930	17619.908203	10563.784180	56.753757
468.182922	1304.083740	17569.181641	10522.651367	56.676987
468.537048	1303.752808	17523.308594	10478.874023	56.568264
468.891144	1301.878296	17492.320313	10456.598633	56.543980
469.245178	1301.878174	17462.218750	10444.248047	56.572880
469.599213	1302.539917	17443.248047	10425.280273	56.520073
469.953186	1298.680298	17429.464844	10412.489258	56.499477
470.307129	1296.805664	17448.871094	10412.489258	56.436642
470.661041	1296.364624	17470.375000	10423.517578	56.430984
471.014923	1294.159180	17540.398438	10443.476563	56.316525
471.368713	1291.402344	17554.513672	10455.276367	56.347607
471.722504	1291.733154	17527.056641	10446.564453	56.388351
472.076294	1294.159180	17506.875000	10427.487305	56.334351
472.429993	1294.820679	17450.636719	10384.370117	56.261780
472.783722	1298.680298	17445.673828	10374.224609	56.205784
473.137329	1298.900757	17468.169922	10367.387695	56.084705
473.490967	1297.136353	17501.912109	10374.003906	56.013535
473.844543	1299.893188	17586.824219	10418.223633	55.985565
474.198090	1304.304077	17671.072266	10470.161133	56.002853
474.551605	1302.319214	17800.201172	10538.088867	55.981544
474.905060	1308.384155	17940.027344	10620.131836	55.988144
475.258484	1308.935547	18086.910156	10691.919922	55.924416
475.611877	1306.178711	18251.660156	10791.385742	55.974850
475.965240	1308.273926	18447.281250	10904.635742	55.991348
476.318573	1309.266235	18634.302734	11014.798828	56.020267
476.671844	1309.597168	18851.650391	11140.730469	56.043228
477.025116	1311.912964	19080.025391	11262.691406	56.003574
477.378326	1311.582275	19312.589844	11406.156250	56.077827
477.731506	1315.882690	19547.250000	11548.297852	56.125332
478.084656	1316.323975	19827.232422	11691.762695	56.050404
478.437744	1317.867554	20118.792969	11861.029297	56.077888
478.790833	1320.844971	20460.417969	12055.882813	56.088181
479.143890	1321.506836	20876.585938	12277.640625	56.027054
479.496826	1319.191040	21361.125000	12546.925781	56.021214
479.849823	1318.308838	22011.734375	12902.333008	55.979248
480.202728	1315.441650	22825.765625	13338.130859	55.892647
480.555603	1315.110840	23823.623047	13912.651367	55.967899
480.908478	1315.441772	25161.562500	14664.491211	55.979961
481.261292	1316.985596	26807.597656	15637.314453	56.178837
481.614075	1312.574707	28644.851563	16790.984375	56.630516
481.966797	1312.464355	30482.433594	18013.246094	57.253338
482.319489	1309.045898	32214.595703	19078.921875	57.497356
482.672150	1305.296631	33764.917969	20012.046875	57.630833
483.024780	1306.730103	35107.265625	20762.894531	57.561703
483.377350	1302.870605	36224.988281	21393.876953	57.530891
483.729919	1298.018677	37244.351563	21959.134766	57.477673
484.082428	1299.011108	38192.691406	22479.951172	57.410755
484.434937	1295.702881	39178.636719	23049.398438	57.423470
484.787384	1295.151489	40234.167969	23637.152344	57.376900
485.139771	1292.725586	41388.390625	24290.515625	57.357296
485.492157	1292.835815	42569.632813	24950.605469	57.314934
485.844482	1293.387207	43648.093750	25558.869141	57.291111
486.196777	1294.710449	44636.695313	26118.943359	57.275257
486.549072	1296.033813	45404.960938	26563.671875	57.284637
486.901276	1296.695313	45975.839844	26896.806641	57.297676
487.253448	1298.239258	46288.355469	27082.396484	57.310711
487.605591	1302.208984	46303.132813	27104.558594	57.337379
487.957703	1299.672607	46083.031250	26980.503906	57.344585
488.309784	1299.562378	45554.933594	26686.738281	57.365185
488.661835	1296.033691	44797.800781	26211.904297	57.275539
489.013855	1298.349365	44004.054688	25639.478516	56.997368
489.365814	1299.231567	43266.445313	25032.431641	56.551762
489.717743	1303.532349	42634.578125	24565.753906	56.282681
490.069611	1305.186401	42050.355469	24204.503906	56.201309
490.421509	1304.965820	41502.742188	23907.646484	56.228680
490.773315	1302.981079	41014.894531	23615.978516	56.187164
491.125092	1306.619995	40491.542969	23336.767578	56.220982
491.476807	1304.524780	39882.945313	22995.142578	56.224739
491.828522	1307.612305	39140.375000	22559.677734	56.173710
492.180176	1309.707520	38236.800781	22056.500000	56.183121
492.531830	1309.156128	37205.195313	21455.404297	56.123875
492.883423	1306.178711	36045.132813	20815.826172	56.160725
493.234985	1304.745239	34956.851563	20201.054688	56.151936
493.586487	1304.965698	33935.281250	19612.308594	56.105320
493.937988	1305.296509	33071.078125	19122.480469	56.089233
494.289429	1307.391846	32372.283203	18721.640625	56.057652
494.640869	1306.950562	31790.261719	18388.835938	56.036842
494.992218	1303.752808	31337.705078	18130.357422	56.025276
495.343567	1308.053345	30892.642578	17869.009766	55.978321
495.694855	1309.266479	30385.390625	17577.007813	55.948795
496.046112	1310.589722	29761.578125	17228.767578	55.949471
496.397339	1310.479492	28948.871094	16769.812500	55.934273
496.748535	1314.008179	28032.728516	16246.127930	55.886360
497.099670	1311.030884	27087.691406	15722.443359	55.908764
497.450806	1309.817871	26246.529297	15224.895508	55.801579
497.801880	1306.840576	25569.789063	14805.307617	55.634071
498.152924	1311.582275	24976.521484	14483.422852	55.659729
498.503937	1313.897827	24514.037109	14216.122070	55.612705
498.854889	1314.449219	24176.052734	14011.676758	55.539532
499.205841	1312.243774	23892.431641	13865.675781	55.594894
499.556702	1311.140991	23686.552734	13729.488281	55.499973
499.907562	1307.943115	23485.634766	13623.516602	55.531357
500.258362	1310.148560	23315.595703	13538.386719	55.569141
500.609161	1309.707520	23158.457031	13438.148438	55.510918
500.959900	1308.494507	22990.400391	13340.337891	55.492554
501.310608	1307.171265	22819.037109	13237.892578	55.461121
501.661255	1307.171265	22611.285156	13115.599609	55.427929
502.011902	1309.266602	22391.291016	13009.629883	55.499241
502.362488	1311.913086	22170.857422	12880.501953	55.461044
502.713043	1309.487061	21960.457031	12771.111328	55.501625
503.063568	1309.817871	21776.964844	12673.630859	55.522213
503.414063	1310.369263	21571.416016	12560.379883	55.525318
503.764496	1309.487061	21409.425781	12466.758789	55.508980
504.114899	1307.722656	21250.632813	12388.024414	55.560104
504.465271	1306.950684	21128.449219	12325.939453	55.591099
504.815613	1310.699951	21029.423828	12258.453125	55.519581
505.165894	1314.559570	20931.613281	12215.776367	55.570099
505.516174	1314.890381	20892.464844	12194.383789	55.571201
505.866394	1313.125977	20881.437500	12174.314453	55.503960
506.216583	1311.802856	20873.714844	12176.960938	55.542416
506.566711	1311.802734	20907.458984	12179.056641	55.457462
506.916840	1310.810303	20949.033203	12189.751953	55.396770
507.266907	1311.251343	21002.847656	12213.791992	55.366467
507.616882	1312.464355	21083.457031	12243.124023	55.286350
507.966858	1310.589966	21133.298828	12281.389648	55.344604
508.316803	1311.251587	21188.214844	12323.844727	55.403801
508.666748	1311.030884	21251.291016	12348.767578	55.354023
509.016632	1309.707642	21313.376953	12381.517578	55.348892
509.366486	1309.046021	21402.917969	12420.113281	55.295803
509.716309	1306.840454	21490.474609	12473.595703	55.325787
510.066040	1308.715088	21588.066406	12531.377930	55.340343
510.415771	1308.935669	21689.849609	12572.951172	55.267471
510.765503	1303.863037	21797.253906	12639.665039	55.314426
511.115173	1302.870483	21897.271484	12686.088867	55.273369
511.464752	1302.650024	21996.625000	12725.236328	55.197643
511.814270	1304.965820	22078.666016	12761.404297	55.148766
512.163818	1302.980835	22163.134766	12800.330078	55.116322
512.513306	1300.444580	22225.990234	12844.991211	55.169636
512.862793	1297.797974	22280.796875	12858.775391	55.096882
513.212219	1294.931030	22320.494141	12882.042969	55.109642
513.561646	1295.482178	22372.982422	12907.185547	55.090515
513.911011	1294.710449	22402.203125	12941.370117	55.177849
514.260315	1298.128906	22437.380859	12976.767578	55.246223
514.609558	1299.893188	22506.414063	13020.213867	55.267529
514.958801	1300.665283	22600.585938	13078.329102	55.294407
515.308044	1304.193970	22745.705078	13157.064453	55.280010
515.657227	1303.311890	22949.488281	13244.510742	55.165398
516.006348	1307.171387	23197.712891	13379.264648	55.147533
516.355408	1308.935669	23468.322266	13511.701172	55.068157
516.704529	1306.950684	23702.210938	13645.460938	55.094292
517.053467	1310.810181	23927.384766	13753.087891	55.013977
517.402466	1309.817627	24100.404297	13834.028320	54.953442
517.751404	1310.589600	24227.660156	13916.841797	55.008129
518.100281	1315.882813	24354.253906	13966.354492	54.910442
518.449219	1316.764893	24445.224609	14012.669922	54.893002
518.798035	1314.228638	24541.933594	14065.931641	54.898678
519.146851	1311.471924	24637.761719	14119.193359	54.906811
519.495544	1311.582275	24703.267578	14175.872070	54.995140
519.844299	1311.582031	24792.478516	14214.577148	54.951035
520.192932	1310.589600	24892.824219	14274.897461	54.974892
520.541626	1311.912964	24987.878906	14328.048828	54.976154
520.890198	1313.236084	25089.660156	14386.934570	54.985973
521.238770	1315.993042	25211.404297	14436.226563	54.906914
521.587280	1313.897827	25350.234375	14487.391602	54.806583
521.935791	1315.000488	25468.556641	14535.690430	54.735996
522.284180	1312.905273	25587.652344	14608.360352	54.770729
522.632629	1310.810181	25735.308594	14683.457031	54.750957
522.981018	1313.346436	25881.085938	14780.826172	54.817738
523.329346	1309.376709	26049.583984	14863.090820	54.784157
523.677551	1312.795288	26239.253906	14971.709961	54.796852
524.025818	1310.810303	26502.146484	15102.712891	54.748596
524.374023	1305.848267	26813.333984	15263.601563	54.720222
524.722229	1304.304443	27208.441406	15479.404297	54.721375
525.070374	1302.760376	27733.115234	15755.747070	54.683285
525.418457	1301.878174	28432.574219	16126.042969	54.639828
525.766541	1303.532227	29419.845703	16671.453125	54.658379
526.114563	1305.406860	30673.535156	17389.437500	54.766956
526.462585	1304.414429	32059.880859	18192.222656	54.909943
526.810547	1302.319214	33429.792969	18980.560547	55.025311
527.158447	1303.311523	34649.191406	19683.437500	55.119629
527.506348	1306.509521	35670.535156	20263.910156	55.166412
527.854065	1305.406860	36507.835938	20743.265625	55.217381
528.201904	1305.296631	37179.289063	21109.150391	55.203930
528.549622	1304.965820	37700.105469	21382.736328	55.166073
528.897339	1304.965820	38087.820313	21609.677734	55.201561
529.245056	1305.848022	38392.945313	21780.269531	55.206322
529.592712	1304.965942	38621.097656	21885.359375	55.151463
529.940369	1302.209106	38808.785156	21982.951172	55.138981
530.287903	1298.239258	39002.093750	22069.074219	55.089420
530.635437	1300.003662	39242.042969	22220.367188	55.137688
530.982910	1296.254272	39534.929688	22386.658203	55.154640
531.330383	1298.349487	39778.742188	22527.146484	55.167824
531.677795	1296.364624	39893.535156	22618.785156	55.243477
532.025208	1296.805664	39896.734375	22614.371094	55.226955
532.372498	1296.144043	39700.453125	22500.900391	55.214523
532.719788	1294.379639	39259.023438	22277.597656	55.270420
533.067078	1295.261841	38522.738281	21870.142578	55.267998
533.414307	1297.577637	37499.183594	21281.066406	55.200558
533.761536	1299.782959	36364.812500	20603.332031	55.050709
534.108643	1298.790649	35301.566406	19957.685547	54.874619
534.455811	1298.349487	34402.292969	19421.650391	54.746651
534.802856	1298.459717	33658.390625	18999.638672	54.700916
535.149902	1300.996094	33076.042969	18649.964844	54.599350
535.496887	1300.665161	32572.203125	18361.488281	54.557030
535.843811	1298.790527	32153.277344	18133.775391	54.562515
536.190796	1300.113892	31807.683594	17944.546875	54.558372
536.537659	1300.885742	31473.228516	17761.607422	54.555664
536.884460	1301.216553	31187.402344	17597.630859	54.528252
537.231323	1303.973267	30885.589844	17434.207031	54.527897
537.578064	1306.950806	30573.738281	17256.117188	54.495789
537.924805	1308.274048	30209.177734	17044.726563	54.449688
538.271423	1307.502197	29892.691406	16852.628906	54.381752
538.618164	1308.935547	29722.433594	16735.298828	54.292377
538.964783	1312.795288	29751.984375	16745.003906	54.263885
539.311279	1312.354126	29938.345703	16845.021484	54.260712
539.657776	1313.787720	30217.447266	17007.230469	54.295692
540.004333	1312.023193	30474.714844	17150.806641	54.311802
540.350769	1311.030762	30722.937500	17281.699219	54.300011
540.697144	1310.920410	30910.619141	17378.960938	54.284473
541.043518	1307.501953	31016.039063	17432.882813	54.278610
541.389893	1307.832764	30991.449219	17440.492188	54.348698
541.736145	1312.243652	30870.919922	17388.113281	54.386295
542.082458	1311.030762	30728.115234	17287.324219	54.309574
542.428711	1313.677490	30558.958984	17197.451172	54.312260
542.774902	1311.030884	30414.613281	17125.003906	54.336861
543.121033	1314.559570	30309.851563	17065.013672	54.320728
543.467102	1315.772705	30228.580078	17010.097656	54.281570
543.813171	1314.449341	30173.115234	16974.039063	54.263042
544.159180	1314.118530	30124.265625	16954.632813	54.288216
544.505127	1316.103394	30064.390625	16922.210938	54.285347
544.851135	1315.882813	29946.505859	16872.808594	54.336666
545.197021	1314.228760	29733.347656	16744.562500	54.295609
545.542908	1312.574585	29327.765625	16523.025391	54.293583
545.888733	1313.125977	28734.279297	16215.583008	54.346573
546.234558	1312.574585	27955.421875	15783.976563	54.316277
546.580322	1314.449219	27086.472656	15301.422852	54.271927
546.926025	1314.449219	26190.398438	14795.492188	54.193081
547.271667	1315.331421	25366.664063	14334.773438	54.131897
547.617371	1312.464233	24569.062500	13915.077148	54.189411
547.962952	1309.376709	23836.634766	13523.718750	54.220280
548.308533	1316.875244	23176.984375	13172.170898	54.232555
548.654053	1318.749878	22597.058594	12847.860352	54.182457
548.999573	1316.985596	22105.242188	12565.673828	54.110786
549.344971	1317.426514	21676.394531	12338.510742	54.133804
549.690430	1313.456787	21303.451172	12134.726563	54.133430
550.035767	1313.897827	20995.458984	11958.290039	54.083073
550.381104	1314.338867	20720.439453	11806.223633	54.064877
550.726440	1308.715088	20440.898438	11648.091797	54.041801
551.071655	1308.053345	20193.007813	11509.590820	54.019386
551.416931	1305.737671	19905.525391	11347.710938	53.989723
551.762085	1305.958130	19601.064453	11181.417969	53.978699
552.107178	1303.752686	19293.402344	10996.381836	53.878918
552.452332	1302.539795	18985.742188	10833.950195	53.900925
552.797424	1304.304077	18713.041016	10694.895508	53.941833
553.142395	1299.011108	18451.914063	10541.066406	53.880421
553.487366	1300.113770	18255.408203	10427.595703	53.832638
553.832336	1301.106323	18065.296875	10326.254883	53.835873
554.177185	1299.782959	17916.652344	10249.505859	53.859261
554.522095	1301.326782	17807.810547	10188.415039	53.839981
554.866943	1304.745361	17704.042969	10118.170898	53.742706
555.211731	1306.068604	17624.757813	10076.267578	53.743282
555.556396	1300.885742	17547.566406	10025.101563	53.698452
555.901123	1302.760376	17476.771484	9970.185547	53.588593
556.245789	1303.201538	17389.656250	9921.333984	53.573849
556.590454	1305.406860	17291.294922	9873.806641	53.599773
556.934998	1303.642700	17206.494141	9822.529297	53.568298
557.279541	1307.722656	17093.353516	9756.367188	53.521107
557.624023	1306.620117	16953.750000	9682.924805	53.532532
557.968567	1311.361694	16822.525391	9618.416992	53.555332
558.312988	1313.567017	16687.994141	9551.811523	53.584072
558.657349	1316.213745	16581.359375	9493.367188	53.567478
559.001770	1315.000732	16496.228516	9436.685547	53.498207
559.346069	1317.757568	16420.470703	9399.524414	53.512020
559.690308	1318.970459	16366.767578	9372.067383	53.516781
560.034485	1318.529541	16310.417969	9338.433594	53.494957
560.378723	1321.727173	16279.982422	9312.409180	53.419884
560.722900	1318.970459	16237.306641	9291.898438	53.443813
561.067017	1315.662354	16214.701172	9271.387695	53.397575
561.411072	1315.110962	16186.361328	9256.833008	53.403191
561.755127	1317.206055	16158.242188	9233.124023	53.338039
562.099182	1316.213745	16149.860352	9226.507813	53.326698
562.443115	1316.103394	16154.382813	9228.051758	53.321198
562.787048	1318.198486	16166.845703	9238.527344	53.340408
563.130920	1317.536865	16204.117188	9264.000977	53.380051
563.474792	1314.559570	16275.242188	9305.022461	53.409748
563.818604	1309.817749	16366.658203	9348.470703	53.388710
564.162354	1314.890259	16455.423828	9404.158203	53.427895
564.506042	1312.133545	16567.021484	9474.841797	53.508804
564.849731	1311.582153	16664.722656	9526.007813	53.503227
565.193420	1309.376709	16735.189453	9565.264648	53.519955
565.537048	1304.304077	16789.001953	9599.890625	53.572803
565.880615	1304.965820	16818.666016	9622.054688	53.611252
566.224121	1303.201416	16827.597656	9631.429688	53.646069
566.567627	1303.642578	16828.146484	9626.024414	53.608036
566.911072	1306.509766	16823.736328	9629.773438	53.638863
567.254517	1305.848022	16856.265625	9626.576172	53.508068
567.597839	1307.612305	16881.408203	9643.888672	53.527580
567.941223	1305.847900	16914.271484	9664.839844	53.554363
568.284485	1305.186401	16938.753906	9688.548828	53.624115
568.627808	1306.289063	17000.615234	9723.504883	53.632221
568.970947	1304.855591	17070.197266	9771.916016	53.706799
569.314148	1310.589600	17146.837891	9822.089844	53.746948
569.657288	1314.449341	17232.078125	9854.289063	53.650200
570.000366	1315.772461	17313.900391	9890.679688	53.599442
570.343445	1316.213745	17378.958984	9918.137695	53.552017
570.686462	1319.301392	17399.359375	9930.046875	53.549217
571.029419	1319.521851	17410.937500	9927.620117	53.494972
571.372314	1314.559570	17389.546875	9902.368164	53.423424
571.715210	1314.780029	17336.173828	9870.829102	53.403900
572.058105	1315.441650	17284.566406	9853.076172	53.463387
572.400879	1318.308716	17266.921875	9838.960938	53.425663
572.743713	1316.985474	17250.712891	9821.758789	53.375919
573.086426	1315.882813	17256.779297	9815.915039	53.322170
573.429077	1315.993042	17280.599609	9816.686523	53.247120
573.771790	1313.456787	17288.978516	9825.950195	53.284603
574.114441	1308.825317	17280.158203	9824.517578	53.318607
574.457031	1309.376709	17246.634766	9826.060547	53.438828
574.799561	1306.399414	17192.378906	9800.476563	53.469017
575.142029	1312.684937	17144.080078	9762.652344	53.374748
575.484436	1316.103271	17057.294922	9728.027344	53.438927
575.826904	1311.471802	16940.076172	9654.365234	53.382206
576.169250	1314.890381	16794.847656	9567.360352	53.310677
576.511597	1309.266357	16627.013672	9469.216797	53.271217
576.853943	1303.863037	16422.126953	9367.434570	53.336624
577.196167	1302.980835	16207.315430	9254.405273	53.349743
577.538391	1300.885742	15981.145508	9138.289063	53.387360
577.880554	1295.923462	15774.605469	9023.274414	53.370544
578.222717	1297.798096	15546.340820	8909.804688	53.423054
578.564819	1298.459717	15335.276367	8798.760742	53.433064
578.906860	1297.798096	15149.357422	8693.560547	53.392998
579.248901	1294.489990	14957.482422	8585.713867	53.364765
579.590942	1292.505005	14756.014648	8477.206055	53.364250
579.932861	1296.474854	14573.073242	8378.731445	53.343910
580.274780	1295.813232	14376.127930	8275.295898	53.358673
580.616638	1297.577515	14177.304688	8171.860840	53.372894
580.958496	1300.665161	13971.095703	8072.835449	53.448620
581.300232	1301.988525	13802.267578	7975.575195	53.387501
581.641968	1302.760376	13638.404297	7879.086426	53.311577
581.983704	1300.885620	13495.599609	7796.160645	53.263035
582.325317	1296.915771	13360.736328	7718.418945	53.229431
582.666992	1296.474731	13243.408203	7650.270996	53.183491
583.008606	1298.018555	13132.584961	7592.488281	53.187160
583.350098	1295.482300	13037.419922	7547.827148	53.247982
583.691589	1294.710449	12956.919922	7496.330566	53.177063
584.033081	1295.813232	12896.602539	7457.184570	53.111656
584.374512	1293.276978	12835.179688	7420.243164	53.084545
584.715881	1293.607666	12787.429688	7390.690430	53.046608
585.057190	1291.512451	12741.335938	7366.209961	53.054943
585.398499	1289.086548	12694.800781	7339.964844	53.051292
585.739807	1291.071655	12657.087891	7322.872559	53.068729
586.081055	1291.622803	12628.416992	7312.286621	53.107288
586.422180	1291.622803	12602.281250	7304.236816	53.158836
586.763367	1289.637939	12593.017578	7295.193359	53.130619
587.104431	1289.196777	12593.017578	7288.686523	53.074886
587.445496	1290.189331	12597.098633	7286.811523	53.035027
587.786499	1287.211914	12592.797852	7291.773926	53.111462
588.127502	1283.021484	12621.468750	7298.059570	53.049927
588.468445	1284.234619	12627.754883	7301.038086	53.041767
588.809326	1284.124390	12634.040039	7310.520996	53.096397
589.150208	1287.322266	12639.332031	7313.277344	53.082714
589.491028	1290.740723	12626.099609	7309.307129	53.095505
589.831848	1290.299683	12624.998047	7293.207520	52.960453
590.172546	1291.291992	12613.971680	7301.368164	53.079979
590.513245	1289.307251	12605.810547	7296.957520	53.087517
590.853943	1289.307251	12610.994141	7297.508789	53.068081
591.194458	1290.189331	12623.235352	7295.524414	52.989594
591.535095	1288.645508	12624.227539	7298.502441	53.017632
591.875610	1289.527588	12644.406250	7303.354004	52.962486
592.216125	1291.622803	12648.376953	7318.352051	53.067360
592.556580	1291.071411	12667.343750	7333.900391	53.117832
592.897034	1287.763184	12700.867188	7345.699219	53.078781
593.237366	1287.652954	12718.510742	7359.813965	53.120785
593.577698	1288.535156	12771.110352	7376.133789	53.015968
593.918030	1289.307007	12819.409180	7411.862305	53.100613
594.258301	1292.284302	12873.332031	7442.958496	53.109825
594.598511	1292.063843	12952.838867	7488.721680	53.141045
594.938721	1294.379639	13037.417969	7540.659180	53.191341
595.278809	1299.231567	13118.026367	7582.893555	53.166691
595.618958	1298.790527	13172.391602	7602.963379	53.094025
595.958984	1299.011108	13228.298828	7615.645020	52.950634
596.299011	1302.098633	13252.007813	7632.847656	52.977383
596.638977	1299.011108	13278.141602	7636.927734	52.907982
596.978943	1297.908447	13289.832031	7640.015625	52.886490
597.318848	1300.665161	13285.533203	7626.452148	52.781448
597.658630	1300.113770	13271.526367	7611.896484	52.723793
597.998474	1298.128662	13238.885742	7596.238281	52.744640
598.338257	1297.356934	13184.189453	7575.947754	52.819714
598.677979	1298.680298	13151.439453	7550.364746	52.744553
599.017700	1297.026245	13096.192383	7516.951660	52.714958
599.357361	1300.444580	13052.415039	7479.238281	52.576664
599.696960	1305.737671	13013.156250	7439.540039	52.392437
600.036560	1307.171265	12965.298828	7411.752441	52.363304
600.376038	1303.973389	12926.591797	7378.008789	52.260471
600.715576	1303.422119	12884.029297	7360.255371	52.301514
601.055054	1302.870850	12840.801758	7337.207520	52.299992
601.394409	1301.878174	12806.395508	7317.579590	52.289906
601.733826	1303.752930	12760.414063	7289.791016	52.249413
602.073120	1301.878296	12756.113281	7273.358398	52.133381
602.412415	1297.577515	12743.873047	7276.778320	52.236992
602.751587	1296.915894	12771.220703	7303.243164	52.345894
603.090820	1298.459839	12801.544922	7331.473145	52.446915
603.429993	1293.166748	12848.080078	7347.792969	52.398716
603.769104	1292.063965	12883.807617	7377.015625	52.493839
604.108154	1293.828369	12909.392578	7393.997070	52.517197
604.447205	1296.144165	12946.553711	7414.839355	52.519146
604.786194	1298.349487	12976.877930	7438.988770	52.580589
605.125183	1302.319336	13007.534180	7450.788086	52.527603
605.464111	1300.665039	13028.486328	7465.565430	52.566460
605.802979	1299.562378	13050.870117	7481.884766	52.609653
606.141846	1300.113770	13074.911133	7500.300781	52.656425
606.480652	1297.908325	13114.829102	7518.054199	52.637619
606.819336	1295.702881	13167.648438	7561.832520	52.780987
607.158020	1295.261719	13228.960938	7598.773926	52.821110
607.496765	1300.003296	13292.807617	7629.099121	52.774109
607.835388	1301.216431	13331.182617	7643.985840	52.724751
608.173950	1305.076050	13348.386719	7647.514160	52.663574
608.512512	1303.201416	13325.559570	7642.332031	52.727848
608.851013	1301.216431	13280.789063	7614.211426	52.698002
609.189514	1304.965820	13184.080078	7559.075195	52.647945
609.527893	1305.186279	13073.698242	7487.948730	52.536488
609.866333	1304.414673	12945.449219	7415.610352	52.497017
610.204712	1303.091309	12806.505859	7337.207520	52.455002
610.542969	1304.304321	12678.920898	7270.051270	52.447899
610.881226	1305.627563	12564.238281	7211.055664	52.452549
611.219482	1303.532349	12470.395508	7161.432129	52.457882
611.557678	1301.547363	12383.722656	7104.642090	52.364220
611.895813	1299.011108	12310.279297	7054.688965	52.270798
612.233948	1298.018555	12237.611328	7015.653320	52.265518
612.571960	1302.098633	12167.256836	6976.947266	52.229782
612.910034	1306.619873	12098.998047	6936.255859	52.163071
613.247986	1306.730103	12027.210938	6902.512695	52.197124
613.585938	1308.935547	11942.411133	6857.190430	52.177246
613.923828	1305.737671	11822.654297	6784.189941	52.091808
614.261658	1308.715088	11693.414063	6719.791016	52.106239
614.599487	1306.730103	11548.295898	6649.326660	52.165821
614.937317	1307.943115	11424.239258	6578.311035	52.097805
615.275024	1307.612305	11309.556641	6510.494141	52.018703
615.612732	1306.399414	11213.178711	6453.704102	51.957397
615.950378	1305.627441	11119.227539	6410.145996	52.014744
616.288025	1302.429443	11032.443359	6365.926270	52.039978
616.625549	1303.421997	10971.901367	6330.970215	51.999371
616.963074	1304.414307	10919.523438	6295.352051	51.907234
617.300537	1305.517212	10871.445313	6272.856934	51.927425
617.638000	1305.296631	10823.035156	6249.258301	51.944714
617.975464	1309.266357	10790.614258	6232.937988	51.930084
618.312744	1310.369141	10753.563477	6212.868164	51.915684
618.650024	1309.486938	10720.259766	6203.164551	52.000809
618.987305	1308.274048	10683.428711	6188.388184	52.053696
619.324585	1305.958374	10658.507813	6178.684082	52.100506
619.661743	1302.429565	10644.723633	6164.238281	52.040844
619.998901	1299.783081	10616.824219	6153.762207	52.097858
620.336060	1298.018799	10589.255859	6134.685059	52.056210
620.673096	1295.151611	10567.752930	6119.577637	52.028828
621.010193	1298.459717	10548.125000	6109.101563	52.008820
621.347168	1296.254272	10527.833984	6088.921875	51.916004
621.684082	1297.908447	10493.208984	6074.696289	51.948143
622.020996	1297.356934	10457.591797	6061.022461	52.003750
622.357849	1298.128906	10433.993164	6043.158691	51.938488
622.694641	1299.562500	10412.929688	6029.374023	51.899715
623.031433	1303.863037	10391.095703	6014.928711	51.842686
623.368164	1305.296631	10386.905273	6010.297852	51.808014
623.704895	1306.619873	10376.759766	6014.377441	51.903919
624.041504	1307.832886	10383.927734	6016.692871	51.882004
624.378174	1305.737671	10402.343750	6029.485352	51.928680
624.714783	1311.692505	10445.901367	6048.231445	51.854946
625.051331	1308.715210	10478.101563	6054.075684	51.752213
625.387756	1309.156250	10514.711914	6075.910156	51.781273
625.724304	1309.486938	10534.119141	6090.686035	51.830788
626.060669	1310.589600	10552.314453	6099.176758	51.814861
626.397034	1310.369141	10560.364258	6096.640625	51.743504
626.733337	1310.369141	10564.333984	6102.153809	51.780884
627.069641	1307.502075	10570.950195	6107.005859	51.811203
627.405884	1309.486938	10560.474609	6100.720215	51.791592
627.742126	1308.935669	10550.439453	6096.860840	51.808941
628.078308	1308.053467	10538.639648	6095.868652	51.869030
628.414429	1304.524780	10513.057617	6084.730469	51.910606
628.750488	1304.414551	10493.319336	6071.167480	51.875095
629.086548	1301.767944	10460.126953	6053.192383	51.880737
629.422546	1299.121338	10419.546875	6042.275879	52.005844
629.758545	1297.798096	10365.293945	6024.081055	52.123356
630.094421	1294.710571	10318.648438	5998.277344	52.123222
630.430298	1293.497437	10264.283203	5962.549316	52.047298
630.766113	1293.276855	10200.986328	5931.121582	52.065517
631.101929	1292.615479	10124.567383	5888.556641	52.037663
631.437622	1293.166626	10043.185547	5844.557617	52.015789
631.773376	1288.865967	9950.115234	5801.881836	52.105827
632.109070	1292.725586	9856.714844	5762.845215	52.196697
632.444641	1292.946167	9763.423828	5713.884277	52.192310
632.780273	1293.387329	9687.446289	5664.592285	52.074989
633.115784	1294.489990	9618.195313	5622.468262	51.995819
633.451294	1297.246826	9549.165039	5590.048340	52.021866
633.786682	1299.121338	9481.458008	5547.152344	51.917091
634.122131	1302.650146	9403.604492	5503.705078	51.858765
634.457458	1301.106323	9351.556641	5472.387695	51.814262
634.792847	1303.311768	9290.575195	5440.519043	51.797550
635.128113	1303.201538	9227.279297	5405.672363	51.772217
635.463318	1304.414429	9176.002930	5380.420410	51.781239
635.798584	1300.775513	9127.813477	5348.000000	51.708252
636.133728	1301.657715	9074.221680	5316.792969	51.657795
636.468872	1304.965820	9012.358398	5290.878906	51.715454
636.803955	1305.737793	8963.067383	5257.576660	51.608578
637.139038	1303.201416	8913.554688	5225.928711	51.544613
637.473999	1305.406860	8849.266602	5206.961914	51.718288
637.808899	1305.958374	8783.101563	5164.727539	51.607533
638.143799	1307.391846	8715.173828	5141.790527	51.761765
638.478638	1309.156128	8654.302734	5102.092773	51.638680
638.813538	1309.156006	8589.573242	5065.923340	51.600990
639.148315	1305.516968	8517.233398	5027.547852	51.610886
639.483032	1306.509521	8454.048828	4989.503906	51.528145
639.817749	1303.421875	8386.782227	4951.900879	51.507744
640.152405	1302.098633	8323.044922	4920.472656	51.536842
640.487000	1301.547363	8252.250000	4888.163086	51.600765
640.821594	1301.326782	8187.410156	4865.336914	51.756710
641.156128	1299.121338	8138.338379	4837.327637	51.734085
641.490662	1297.687744	8078.791504	4815.603516	51.878220
641.825134	1298.569946	8018.140625	4791.454102	51.980766
642.159546	1298.459717	7977.560059	4770.723145	51.986992
642.493896	1302.760376	7925.291016	4745.470215	51.984810
642.828186	1301.216553	7883.938477	4722.864746	51.979233
643.162537	1299.562622	7849.974609	4704.890137	51.986465
643.496765	1293.718140	7814.246094	4682.614746	51.972733
643.830994	1292.505005	7780.061523	4663.317871	51.958130
644.165100	1293.387329	7751.059570	4651.958984	52.009014
644.499268	1292.615479	7734.409180	4635.528809	51.894135
644.833313	1291.071655	7720.955566	4628.471191	51.904507
645.167358	1288.535278	7705.075684	4616.010254	51.857773
645.501343	1287.652954	7682.139648	4612.592773	51.996979
645.835327	1287.873535	7662.069824	4603.880859	52.022358
646.169189	1289.638062	7648.727539	4598.587891	52.034962
646.503052	1289.417358	7636.818359	4595.279785	52.082142
646.836914	1293.387207	7626.342285	4591.750977	52.082539
647.170654	1295.041260	7611.676270	4587.229980	52.119347
647.504395	1296.584961	7607.376465	4577.746094	51.992863
647.838074	1296.695435	7601.641602	4569.806152	51.913383
648.171753	1299.562500	7598.995605	4571.680664	51.943058
648.505371	1300.665283	7600.097656	4567.710938	51.862537
648.838928	1301.988525	7603.184570	4557.786621	51.669525
649.172424	1304.635010	7610.131836	4553.596680	51.525860
649.505920	1302.870728	7606.382324	4550.177734	51.515842
649.839294	1308.274048	7598.001465	4555.582031	51.628757
650.172729	1310.920532	7596.127441	4559.110352	51.679920
650.506104	1314.890381	7600.207520	4560.985352	51.645679
650.839355	1317.536987	7584.989746	4559.661621	51.729542
651.172668	1318.308838	7565.913086	4556.574219	51.832111
651.505859	1316.875244	7542.977051	4550.619141	51.938503
651.839111	1319.080688	7527.979980	4541.797363	51.904800
652.172241	1321.175903	7515.959961	4534.850098	51.877098
652.505371	1319.521729	7502.616211	4527.241211	51.878868
652.838379	1320.845093	7475.930176	4519.853027	51.973415
653.171387	1319.632202	7461.924805	4501.658203	51.805183
653.504333	1318.088379	7438.988281	4496.916504	51.933998
653.837280	1318.970459	7418.918945	4494.932129	52.065388
654.170227	1319.080811	7399.731934	4480.155273	51.985786
654.503052	1315.662354	7379.772461	4478.170898	52.151237
654.835876	1315.441895	7365.657715	4467.363281	52.096016
655.168579	1312.243896	7348.234375	4459.423828	52.140244
655.501343	1312.574707	7332.906250	4457.328613	52.235561
655.833984	1310.920532	7323.863770	4456.336426	52.310753
656.166626	1312.464233	7319.673340	4455.784668	52.325802
656.499268	1313.456787	7342.720215	4471.884766	52.384972
656.831787	1312.684937	7376.904785	4489.527832	52.386669
657.164307	1311.912964	7422.889160	4504.635742	52.245708
657.496765	1311.140991	7469.424316	4524.705566	52.182796
657.829224	1311.361572	7518.275391	4546.098145	52.115055
658.161621	1315.110718	7566.463379	4564.954102	51.986240
658.493958	1317.095703	7605.831055	4582.377930	51.922718
658.826233	1310.920410	7635.494629	4594.728516	51.921410
659.158508	1310.479370	7661.739746	4596.381836	51.736225
659.490723	1311.140991	7680.155273	4604.763184	51.713215
659.822876	1310.479492	7699.012695	4605.093262	51.570740
660.154968	1306.399414	7700.555664	4607.961426	51.634052
660.487061	1307.943115	7699.343750	4602.558105	51.547623
660.819153	1303.642700	7693.719727	4594.397461	51.497890
661.151123	1305.406982	7679.934570	4591.750977	51.554317
661.483093	1308.935791	7668.576660	4581.275391	51.454788
661.815002	1310.479614	7652.807129	4569.476074	51.384865
662.146851	1312.354126	7623.915039	4550.950195	51.312126
662.478760	1314.008057	7595.354980	4529.667480	51.193790
662.810486	1311.802612	7558.523926	4518.750000	51.338089
663.142212	1309.597168	7505.482910	4496.805664	51.440723
663.473938	1306.730103	7453.654785	4462.510742	51.339180
663.805603	1306.840332	7388.263184	4424.246582	51.261131
664.137207	1307.060913	7295.854980	4383.776855	51.374550
664.468689	1306.730103	7208.187500	4345.732422	51.495796
664.800293	1304.965820	7131.107910	4299.197754	51.393047
665.131775	1304.083496	7048.623535	4256.081055	51.387882
665.463196	1302.539795	6980.255859	4215.390137	51.303207
665.794617	1304.965820	6923.795410	4190.358398	51.352200
666.125916	1309.156250	6865.902344	4165.105957	51.396080
666.457275	1308.715210	6822.564941	4135.332031	51.263943
666.788574	1305.627563	6776.801270	4114.600586	51.341324
667.119812	1306.730225	6747.910645	4103.573730	51.401409
667.450928	1307.612305	6727.731445	4092.215332	51.375309
667.782104	1311.582153	6713.063965	4081.518555	51.281048
668.113159	1308.384155	6691.230469	4074.240723	51.382790
668.444214	1304.414307	6669.286621	4065.088623	51.458344
668.775208	1303.311523	6650.980469	4061.780518	51.582642
669.106201	1304.414307	6636.645996	4053.840820	51.562401
669.437134	1303.311646	6629.367676	4050.532715	51.580776
669.768005	1302.870605	6622.200195	4044.136963	51.534058
670.098877	1300.444702	6610.951660	4042.593018	51.636284
670.429688	1303.201416	6591.874023	4026.823975	51.499168
670.760437	1299.893311	6567.504395	4017.119873	51.583656
671.091187	1298.349487	6559.564941	4008.187988	51.505939
671.421814	1296.033813	6542.692871	3994.293457	51.428150
671.752441	1295.261963	6521.189941	3987.456543	51.516109
672.083008	1292.946167	6507.185059	3981.060547	51.553341
672.413574	1293.607788	6493.731934	3973.231689	51.530003
672.744080	1296.033813	6466.936035	3961.983887	51.556770
673.074524	1293.828369	6440.581055	3951.287598	51.633705
673.404968	1297.467407	6416.541504	3940.811279	51.637146
673.735352	1301.437256	6396.582520	3928.791748	51.565838
674.065613	1303.752930	6375.410156	3913.463867	51.456768
674.395935	1302.429688	6351.700684	3895.048096	51.346390
674.726196	1301.657837	6320.494141	3876.522217	51.304008
675.056335	1304.414551	6304.504395	3861.635498	51.143501
675.386536	1304.745361	6292.815430	3856.563232	51.158417
675.716614	1306.840454	6281.346680	3847.741455	51.078453
676.046692	1308.274048	6279.913086	3843.109863	50.985920
676.376770	1310.259033	6268.334961	3838.919189	51.000832
676.706726	1312.023315	6257.638184	3832.964600	50.973267
677.036621	1310.038452	6262.820801	3817.747070	50.632320
677.366516	1310.258911	6260.616211	3824.804688	50.795238
677.696411	1314.338989	6274.068359	3828.113037	50.683689
678.026184	1313.787720	6291.381836	3835.060303	50.652431
678.355957	1312.464355	6305.166016	3847.300293	50.770828
678.685669	1312.464355	6330.639160	3858.989258	50.746037
679.015320	1309.817749	6346.187500	3870.127197	50.836411
679.344971	1306.730103	6362.838379	3881.926270	50.932381
679.674561	1305.406860	6371.991211	3887.108887	50.955475
680.004150	1301.547241	6394.928711	3901.113525	51.038128
680.333618	1299.231689	6410.145996	3912.030518	51.121948
680.663086	1299.672729	6424.701660	3920.521484	51.138222
680.992493	1298.680298	6430.987305	3925.042725	51.173134
681.321899	1298.569824	6429.002930	3930.335938	51.297153
681.651184	1298.128784	6429.994629	3937.944580	51.439693
681.980530	1296.585083	6419.849609	3938.054199	51.558323
682.309753	1295.372070	6412.682129	3924.491455	51.376980
682.638977	1290.850952	6387.650391	3922.616455	51.635654
682.968079	1288.314697	6361.735840	3912.692383	51.727970
683.297241	1288.976318	6340.563965	3895.710205	51.602268
683.626343	1288.865845	6318.619629	3875.309570	51.422871
683.955383	1293.056396	6279.803711	3867.370117	51.623104
684.284363	1294.048950	6252.235352	3853.255127	51.615768
684.613281	1292.284546	6209.890137	3837.154785	51.750191
684.942139	1296.144043	6166.111816	3823.039795	51.887321
685.271057	1299.231567	6128.619629	3803.411865	51.852947
685.599792	1301.657593	6088.370117	3783.452393	51.847588
685.928589	1305.737671	6056.721191	3759.853760	51.654911
686.257324	1310.810181	6019.118164	3743.203125	51.661724
686.585999	1310.699951	5994.527344	3723.684814	51.517376
686.914612	1310.810303	5948.323242	3703.394775	51.591976
687.243164	1310.369141	5912.043457	3681.009766	51.516914
687.571777	1307.281494	5879.072754	3662.703857	51.520779
687.900269	1308.825317	5843.344727	3639.216064	51.392227
688.228699	1309.707520	5811.365234	3617.381592	51.262760
688.557129	1305.186401	5783.466309	3599.407715	51.229965
688.885498	1306.950806	5757.552246	3583.748779	51.157082
689.213867	1310.920532	5727.668457	3571.398438	51.179691
689.542114	1311.140991	5706.827148	3550.336426	50.940746
689.870361	1310.369141	5686.095703	3540.521973	50.966457
690.198608	1305.737671	5651.470215	3526.186768	51.094936
690.526794	1305.296631	5620.042969	3516.703125	51.252296
690.854858	1302.870605	5598.098633	3505.014404	51.269543
691.182922	1300.775513	5560.605957	3483.070313	51.229618
691.510986	1300.224121	5533.919922	3462.118408	51.063995
691.838928	1297.908447	5499.404785	3438.078613	50.938286
692.166931	1297.687866	5463.015137	3414.370117	50.816708
692.494812	1296.695557	5415.708496	3391.212891	50.849983
692.822632	1295.702881	5372.591309	3369.930420	50.877712
693.150452	1293.056396	5328.923828	3342.913574	50.790993
693.478149	1296.144043	5291.430664	3323.946777	50.754875
693.805908	1294.379639	5266.067871	3304.208008	50.603882
694.133606	1294.710449	5228.244141	3291.526855	50.763931
694.461243	1296.585083	5198.580078	3280.058838	50.832298
694.788818	1295.261841	5180.605957	3278.735107	51.050129
695.116333	1293.938477	5170.019531	3279.507080	51.226189
695.443848	1295.261719	5164.505371	3275.867920	51.188457
695.771301	1292.284302	5178.620605	3288.770020	51.371922
696.098755	1289.748047	5203.322266	3306.744385	51.538471
696.426147	1293.166626	5236.514160	3328.578125	51.616333
696.753418	1293.717896	5275.661133	3352.617676	51.705906
697.080688	1297.687744	5332.451660	3382.391113	51.668533
697.407898	1298.569946	5386.485352	3412.054199	51.700783
697.735107	1301.768066	5424.308594	3430.029053	51.624985
698.062317	1303.201660	5465.219727	3454.950439	51.699650
698.389404	1306.289307	5499.735352	3474.689453	51.709263
698.716492	1305.407104	5531.273438	3485.385742	51.586548
699.043457	1303.863281	5551.122559	3493.987061	51.565578
699.370483	1305.406982	5568.545410	3503.029297	51.549397
699.697388	1309.597412	5572.294434	3511.520508	51.655628
700.024292	1313.677490	5568.766113	3513.505615	51.698757
700.351135	1314.008423	5560.936523	3509.535645	51.696831
700.677917	1318.860352	5549.137695	3503.911865	51.652676
701.004639	1319.191162	5533.699219	3496.633545	51.665401
701.331299	1319.963013	5514.731934	3485.165283	51.616718
701.658020	1321.286133	5491.244629	3468.403564	51.490139
701.984619	1319.963013	5453.972168	3450.539551	51.537781
702.311218	1319.742432	5411.186523	3427.823242	51.524124
702.637756	1319.191040	5359.027344	3390.551270	51.273373
702.964233	1319.411621	5287.901855	3354.492188	51.280975
703.290649	1316.213867	5216.665527	3314.793457	51.239697
703.617065	1319.080933	5132.086914	3273.662109	51.260902
703.943481	1320.624756	5047.287109	3224.700928	51.093338
704.269775	1320.735107	4959.289551	3173.093262	50.909180
704.596008	1319.522095	4881.105957	3137.034180	51.031006
704.922241	1317.095947	4814.500977	3094.910156	50.832378
705.248474	1316.323975	4747.565430	3061.387695	50.858086
705.574585	1315.882935	4687.687500	3039.884277	51.129929
705.900696	1316.103271	4637.072266	3014.301270	51.135616
706.226746	1314.559570	4597.925781	2992.026123	51.089840
706.552734	1311.692505	4570.799316	2970.082031	50.884785
706.878723	1306.068604	4551.612305	2951.666504	50.703304
707.204651	1302.649902	4529.888672	2936.007813	50.611622
707.530518	1301.547363	4516.986328	2930.163086	50.649872
707.856323	1302.098633	4510.700684	2924.759766	50.572216
708.182068	1301.988403	4514.008789	2923.987793	50.497791
708.507813	1299.341797	4509.597656	2920.569336	50.501507
708.833496	1301.106201	4522.278809	2922.995605	50.350899
709.159180	1301.878052	4538.268066	2929.170654	50.281101
709.484802	1303.091187	4550.949219	2930.604248	50.110352
709.810303	1303.752563	4569.696289	2932.479248	49.870014
710.135864	1306.178711	4579.620117	2939.646973	49.900642
710.461304	1306.288818	4591.309570	2942.624023	49.812019
710.786743	1305.627319	4600.352051	2950.343262	49.919678
711.112122	1305.847900	4608.181152	2958.172607	50.035069
711.437500	1305.406860	4615.128418	2958.062012	49.933357
711.762817	1308.825195	4614.136230	2962.252441	50.023350
712.088013	1307.171143	4618.546875	2960.929199	49.941723
712.413269	1309.266357	4613.364258	2959.495605	49.944927
712.738403	1312.133423	4616.562012	2962.803711	49.953274
713.063538	1313.125977	4610.276855	2958.944092	49.916374
713.388611	1312.243652	4604.983398	2959.826172	50.036827
713.713623	1309.817749	4597.154297	2963.354980	50.300213
714.038574	1312.243652	4596.713379	2970.743408	50.495205
714.363525	1310.258789	4590.096680	2970.081787	50.606861
714.688477	1305.847900	4579.951660	2963.685791	50.634861
715.013306	1306.730103	4555.581543	2951.445801	50.624527
715.338135	1307.391724	4534.299316	2944.829346	50.743244
715.662842	1306.068604	4507.282227	2932.147949	50.795715
715.987549	1306.950684	4475.633789	2918.143311	50.847389
716.312195	1308.274048	4442.441406	2907.226318	51.016811
716.636841	1303.863037	4403.735840	2895.316895	51.339329
716.961426	1300.003540	4372.087891	2870.836426	51.132477
717.285950	1297.687744	4341.210938	2849.994873	51.003624
717.610474	1293.497437	4300.630371	2827.168701	51.001114
717.934937	1293.056396	4265.012695	2808.091553	50.977707
718.259277	1292.615234	4230.827637	2795.630859	51.154083
718.583679	1291.291992	4202.046875	2780.523438	51.163067
718.908020	1288.535156	4169.406738	2764.202881	51.222961
719.232239	1286.881104	4142.720703	2747.772217	51.154522
719.556519	1287.542725	4115.262695	2731.231445	51.054871
719.880737	1287.322144	4084.717285	2715.131592	51.040680
720.204834	1284.344727	4055.274902	2693.848877	50.867546
720.528931	1288.755615	4025.060303	2674.771484	50.652832
720.852966	1286.440063	3988.890625	2650.511719	50.475357
721.176941	1288.424805	3950.295410	2629.008789	50.362476
721.500916	1289.307129	3919.970703	2611.916504	50.276646
721.824829	1284.675537	3898.798096	2598.463379	50.257317
722.148743	1284.785767	3867.370117	2586.884766	50.418449
722.472534	1288.535034	3844.874268	2571.667236	50.194126
722.796326	1289.417236	3823.701660	2559.427002	50.113152
723.119995	1288.424805	3799.882813	2550.053711	50.234921
723.443665	1293.056396	3787.201172	2534.725586	49.783363
723.767334	1294.820801	3769.006348	2530.535400	49.944298
724.090942	1294.600220	3758.751221	2521.823730	49.803101
724.414551	1299.231689	3752.686035	2520.390137	49.773026
724.737976	1300.223999	3747.503418	2511.348145	49.488594
725.061462	1302.539795	3747.393555	2505.944580	49.221954
725.384888	1302.870728	3747.834717	2506.826904	49.242290
725.708252	1303.311768	3747.503662	2508.701172	49.316479
726.031616	1303.863159	3752.465820	2512.119873	49.344746
726.354858	1302.981079	3753.017090	2511.017090	49.306866
726.678162	1301.878296	3762.721436	2519.838867	49.493626
727.001404	1305.517334	3766.580811	2529.763428	49.744595
727.324463	1307.281860	3771.102051	2535.056641	49.832157
727.647583	1309.928345	3778.269775	2545.201660	50.044674
727.970642	1306.179077	3790.069092	2548.399658	50.011093
728.293701	1308.715210	3792.384766	2551.156494	50.024422
728.616699	1309.707642	3797.126221	2557.441895	50.161816
728.939575	1309.928223	3815.431152	2557.993408	49.812962
729.262512	1305.958252	3825.686768	2565.381592	49.982502
729.585266	1305.627441	3834.950195	2572.328857	50.080654
729.908142	1304.193848	3854.909180	2579.827148	50.010807
730.230896	1302.098633	3868.252197	2591.516113	50.247089
730.553467	1304.193848	3887.329346	2596.809082	50.040550
730.876160	1301.106201	3901.333740	2608.277832	50.271431
731.198792	1296.695313	3912.360840	2614.342529	50.375217
731.521362	1294.159058	3927.357910	2624.046387	50.504631
731.843872	1293.056152	3925.152832	2629.449951	50.772976
732.166321	1289.968506	3925.152832	2630.773193	50.880871
732.488770	1291.732910	3926.476074	2626.693359	50.667576
732.811157	1289.196655	3919.639404	2618.974121	50.553368
733.133484	1288.755615	3912.250732	2611.696045	50.426640
733.455811	1290.299438	3894.386475	2605.300293	50.497578
733.778015	1290.961182	3877.845947	2597.801758	50.517929
734.100281	1289.527710	3869.685547	2587.877197	50.320549
734.422424	1286.660522	3857.666016	2579.055420	50.268074
734.744507	1290.189331	3842.668945	2572.990234	50.257050
735.066589	1288.645508	3832.192627	2564.499268	50.160416
735.388611	1291.512695	3820.062988	2556.008545	50.008728
735.710571	1290.630493	3804.293945	2548.950928	50.059223
736.032532	1292.505005	3794.038574	2538.805908	49.821472
736.354431	1292.284424	3781.467529	2530.865967	49.758556
736.676270	1293.276733	3765.367920	2523.257324	49.754658
736.998108	1298.900879	3751.914551	2514.655762	49.561684
737.319824	1297.687866	3736.807373	2508.480957	49.640579
737.641541	1301.547485	3717.729980	2491.278564	49.240112
737.963135	1302.209106	3696.888672	2484.220703	49.359905
738.284790	1303.311890	3671.305176	2477.935547	49.604183
738.606323	1303.532227	3660.498047	2467.679932	49.391792
738.927856	1305.517334	3650.022217	2455.550049	49.052265
739.249390	1307.391968	3639.436279	2448.602783	48.936066
739.570740	1311.913086	3628.740234	2446.838379	48.986187
739.892212	1310.810303	3617.933350	2446.066650	49.206581
740.213562	1308.604858	3610.214355	2440.001221	49.156750
740.534790	1310.479614	3603.818359	2434.818848	49.026302
740.856079	1306.730347	3588.931641	2432.944092	49.347698
741.177246	1304.304443	3578.455322	2425.445801	49.299339
741.498413	1306.399536	3569.964600	2420.593262	49.222961
741.819580	1307.943237	3562.245605	2410.558838	48.911613
742.140625	1309.707642	3551.989990	2406.037842	48.893497
742.461670	1307.722534	3536.992920	2401.847412	49.079952
742.782654	1306.950562	3515.489990	2395.120605	49.271023
743.103577	1309.155884	3498.728760	2384.865479	49.128742
743.424438	1309.707275	3477.335938	2372.735596	49.041073
743.745300	1305.847900	3448.003418	2360.715820	49.243294
744.066101	1304.745117	3421.758545	2350.460449	49.395782
744.386902	1303.421875	3399.924561	2346.049561	49.731762
744.707581	1302.649902	3381.399170	2336.676270	49.742718
745.028198	1302.429443	3367.504395	2325.428467	49.538105
745.348816	1299.562378	3355.815430	2316.496582	49.455696
745.669373	1297.357056	3337.620605	2308.997803	49.583828
745.989929	1295.261963	3316.558350	2303.042969	49.858150
746.310364	1293.497437	3301.892090	2292.897949	49.761162
746.630798	1294.159180	3289.431641	2287.825439	49.801033
746.951172	1290.409912	3286.343750	2280.878174	49.624302
747.271545	1286.109375	3276.529297	2278.231689	49.844875
747.591858	1290.299683	3275.537109	2277.349609	49.719490
747.912109	1295.261841	3266.936035	2276.357178	49.759506
748.232300	1291.512695	3258.555176	2276.798096	50.089687
748.552429	1294.159180	3245.542725	2279.555176	50.497299
748.872559	1289.637817	3235.066895	2274.372314	50.617855
749.192627	1293.387329	3235.287598	2269.189453	50.249859
749.512695	1293.166626	3236.941162	2268.637939	50.184387
749.832642	1293.938477	3234.956543	2267.204346	50.142029
750.152588	1295.592651	3234.625732	2263.234619	49.903324
750.472473	1295.592651	3243.116455	2263.124268	49.680092
750.792358	1297.246704	3246.204346	2262.021484	49.502090
751.112122	1298.570068	3241.242188	2259.816162	49.480614
751.431824	1300.775391	3249.181641	2253.089355	48.876560
751.751587	1300.334351	3246.093750	2249.891846	48.801384
752.071228	1299.452148	3243.447510	2242.944336	48.533665
752.390869	1300.665161	3240.911133	2244.708984	48.655884
752.710327	1303.752808	3238.595215	2240.298096	48.404217
753.029846	1303.201416	3238.595215	2236.107666	48.202400
753.349304	1304.524780	3236.610596	2232.909668	48.050915
753.668762	1305.186279	3230.545654	2230.704346	48.069885
753.988098	1304.965820	3223.157471	2223.977783	47.910332
754.307434	1304.193848	3213.674072	2216.258789	47.765091
754.626770	1303.862915	3210.917480	2210.855225	47.559853
754.946045	1302.760376	3209.262939	2205.672607	47.359612
755.265259	1299.011108	3208.050293	2201.923096	47.296673
755.584351	1300.885742	3207.277832	2202.033447	47.269798
755.903442	1299.562500	3202.756592	2199.386963	47.279701
756.222534	1298.459839	3192.391357	2193.873291	47.278027
756.541565	1296.033813	3191.288330	2190.344727	47.186852
756.860535	1295.813354	3191.178223	2190.455078	47.201557
757.179443	1294.820923	3185.995605	2191.557373	47.416901
757.498291	1297.467529	3183.789795	2191.116211	47.375187
757.817139	1300.665405	3188.752197	2193.873291	47.307564
758.135925	1302.540039	3184.892822	2198.725342	47.609848
758.454651	1301.657837	3183.569092	2202.695068	47.878838
758.773376	1305.958374	3179.820313	2202.143799	47.825584
759.092041	1306.178955	3185.002930	2199.497070	47.546665
759.410645	1302.540039	3189.193359	2199.497070	47.542229
759.729187	1301.547485	3180.482178	2206.223877	48.148369
760.047607	1301.768188	3185.223633	2203.908203	47.898132
760.366089	1305.406982	3187.319092	2202.253662	47.656139
760.684509	1305.186523	3201.543945	2205.341553	47.467583
761.002869	1305.627563	3227.237305	2217.912598	47.475040
761.321228	1304.193970	3265.833008	2234.233154	47.411331
761.639465	1306.840576	3313.470703	2256.177246	47.309998
761.957642	1306.730225	3365.739990	2284.076172	47.466797
762.275879	1304.965820	3409.297607	2304.807373	47.513493
762.593994	1303.752930	3447.561768	2330.501221	47.893650
762.912109	1302.539673	3483.180176	2347.813721	47.934265
763.230103	1305.296387	3503.359863	2359.282227	47.950657
763.548157	1302.649780	3515.710449	2371.191650	48.283443
763.866150	1302.980713	3529.274170	2374.720215	48.140083
764.184021	1301.326660	3539.860596	2378.138672	48.103447
764.501892	1298.018555	3546.587158	2381.226318	48.173214
764.819702	1295.923340	3544.491699	2380.785156	48.246780
765.137451	1296.474731	3548.792725	2376.815186	47.965717
765.455200	1292.504883	3554.416748	2380.344238	48.093800
765.772888	1293.607666	3544.161377	2381.115967	48.321812
766.090515	1293.828247	3534.347168	2385.195801	48.710480
766.408081	1295.371948	3534.897949	2376.484375	48.274166
766.725586	1293.938477	3525.415283	2372.625244	48.339592
767.043091	1294.269287	3515.600342	2366.560303	48.272453
767.360535	1294.820679	3500.824463	2360.936279	48.327911
767.677917	1293.497437	3468.404053	2347.372559	48.456108
767.995239	1291.512573	3422.089355	2327.413330	48.620674
768.312500	1292.174194	3362.983643	2301.499023	48.740593
768.629822	1290.299561	3302.553467	2271.174072	48.745068
768.947021	1290.520142	3246.204346	2243.716064	48.739765
769.264160	1294.379639	3190.406738	2210.083252	48.295914
769.581299	1294.379639	3148.392822	2184.941162	48.034260
769.898376	1292.505005	3111.230713	2170.054199	48.250771
770.215393	1292.174072	3077.928467	2149.433105	48.005428
770.532349	1292.504883	3049.698975	2140.060059	48.233440
770.849304	1291.512451	3019.925293	2127.930176	48.392242
771.166199	1290.740601	2998.863281	2112.822754	48.127815
771.483032	1287.542725	2981.770752	2103.118896	48.138512
771.799866	1288.645508	2961.260010	2100.251953	48.523220
772.116577	1291.622803	2940.528564	2090.327393	48.438461
772.433350	1293.938599	2928.509033	2078.969238	48.026726
772.749939	1294.931030	2919.025391	2066.067383	47.481007
773.066589	1294.048828	2905.131348	2058.127686	47.426426
773.383057	1297.357178	2888.811035	2053.606689	47.519413
773.699646	1298.680420	2876.460205	2051.731934	47.728558
774.016113	1300.885864	2860.029785	2043.681885	47.641273
774.332520	1303.201660	2851.208008	2039.932495	47.592236
774.648804	1308.494751	2842.055176	2035.631836	47.414963
774.965149	1307.943359	2831.689697	2031.110840	47.459835
775.281433	1313.126099	2820.993164	2026.148682	47.286835
775.597656	1313.677490	2814.156494	2019.532227	47.041962
775.913879	1312.905640	2807.540283	2023.061157	47.513653
776.229980	1314.449463	2797.836426	2023.612549	47.807018
776.546082	1312.023315	2787.691162	2020.304321	47.997318
776.862122	1315.882935	2780.854248	2018.429443	47.956333
777.178162	1317.978149	2771.812012	2010.048706	47.603138
777.494141	1315.331421	2767.621582	2007.402100	47.653748
777.809998	1314.780151	2755.822266	2007.291870	48.056313
778.125854	1316.544556	2750.309082	2003.322021	47.900295
778.441711	1317.426758	2744.133789	1998.469849	47.735313
778.757446	1316.323975	2737.847900	1993.728271	47.653385
779.073181	1313.567017	2733.547363	1989.096924	47.573189
779.388855	1316.323853	2727.702637	1985.016724	47.378696
779.704468	1315.552124	2723.623047	1987.222290	47.701443
780.020020	1310.258911	2717.888672	1982.260010	47.739902
780.335571	1311.251343	2708.736328	1975.202759	47.510452
780.651062	1310.479492	2703.222168	1973.328125	47.593044
780.966553	1307.722656	2697.708740	1966.601563	47.401836
781.281860	1301.657471	2686.020020	1965.829590	47.976746
781.597290	1301.767944	2678.631592	1957.559204	47.629353
781.912476	1299.231812	2675.102783	1950.391602	47.327099
782.227722	1300.775635	2666.060547	1944.767456	47.169041
782.542908	1299.011108	2654.923096	1937.158447	47.064068
782.858093	1299.452148	2642.682373	1934.401611	47.270336
783.173218	1302.539917	2640.256836	1925.910767	46.599609
783.488281	1300.003662	2639.595215	1920.286621	46.303886
783.803345	1299.562622	2630.883789	1915.104004	46.235378
784.118225	1301.547485	2618.202148	1907.274780	46.005024
784.433167	1302.208862	2609.821533	1899.776245	45.699112
784.748047	1303.532227	2603.425537	1892.388062	45.300320
785.062866	1306.619995	2590.193115	1882.242920	44.845356
785.377686	1305.958374	2579.276123	1881.911987	45.232513
785.692444	1306.619995	2568.689697	1884.779053	45.810390
786.007141	1305.517334	2564.830078	1886.212646	46.112080
786.321716	1308.825439	2558.765137	1881.470947	45.813850
786.636353	1311.141113	2562.073242	1884.889282	45.865650
786.950928	1309.487061	2567.256104	1886.102295	45.844284
787.265442	1308.715088	2574.313721	1888.197510	45.787220
787.579834	1304.414551	2570.674561	1887.976929	46.085510
787.894226	1308.163696	2576.850098	1884.779175	45.449802
788.208618	1304.193970	2578.834961	1888.197510	45.817101
788.522949	1305.517212	2574.424072	1885.109985	45.676540
788.837219	1302.870605	2574.424072	1887.756714	45.997761
789.151367	1303.752808	2579.937500	1886.764160	45.683933
789.465515	1301.657593	2579.937744	1880.698975	45.298473
789.779602	1299.893188	2571.005615	1879.927124	45.631992
790.093689	1303.973267	2559.427002	1876.618896	45.612644
790.407776	1300.554688	2555.016113	1874.964844	45.789383
790.721741	1299.672607	2549.943848	1878.052490	46.260353
791.035645	1298.018555	2541.562988	1875.075195	46.404182
791.349548	1296.695190	2534.615967	1874.413452	46.668434
791.663391	1293.938477	2536.270020	1872.318481	46.556011
791.977173	1296.805664	2532.630859	1869.451294	46.337105
792.290894	1296.254150	2521.714111	1862.504272	46.207150
792.604614	1298.790771	2510.466064	1854.454468	45.859127
792.918274	1299.231812	2501.754639	1849.491821	45.758801
793.231812	1298.680542	2485.764893	1840.670044	45.657204
793.545410	1298.459839	2473.083496	1836.038452	45.766029
793.858948	1300.113892	2456.983398	1828.870728	45.705833
794.172363	1304.524780	2451.690186	1825.011108	45.371517
794.485840	1302.209106	2442.427490	1822.144165	45.599602
794.799194	1308.494629	2439.449951	1818.615356	45.105293
795.112488	1307.171265	2438.126953	1819.277100	45.280804
795.425781	1309.156128	2435.370117	1813.432617	44.776260
795.738953	1305.958374	2428.533203	1809.131836	44.823154
796.052185	1307.061035	2428.753906	1808.580566	44.710949
796.365234	1307.171265	2428.754150	1808.139648	44.666195
796.678284	1305.627441	2429.966797	1805.493164	44.458618
796.991333	1308.825317	2427.540771	1802.956787	44.169540
797.304382	1309.927979	2429.305176	1802.405640	43.995686
797.617310	1312.023193	2428.974121	1804.721191	44.110981
797.930115	1312.574463	2422.468262	1802.736450	44.162964
798.242981	1314.890259	2417.726318	1802.515869	44.215603
798.555786	1313.236084	2413.425781	1801.523193	44.382084
798.868530	1317.205933	2412.764160	1796.891968	43.784622
799.181213	1313.346436	2411.110352	1800.420532	44.369659
799.493896	1313.125854	2406.479004	1798.766724	44.417568
799.806519	1316.985474	2406.037842	1797.994629	44.167679
800.119080	1318.198608	2402.068115	1792.480835	43.758240
800.431580	1315.000610	2392.033203	1787.077515	43.831257
800.744080	1313.897949	2382.329346	1780.681885	43.688713
801.056458	1315.000732	2373.948486	1776.711914	43.600941
801.368835	1312.133667	2360.054199	1769.874756	43.680897
801.681152	1314.890381	2348.144531	1768.772095	43.927402
801.993408	1316.765015	2338.440430	1766.346191	44.004307
802.305664	1319.962891	2329.397949	1764.361450	44.024483
802.617798	1320.845093	2318.812012	1760.391602	44.044197
802.929993	1320.403809	2310.431396	1753.223755	43.717968
803.242065	1321.396240	2301.058105	1754.105835	44.169281
803.554016	1318.418945	2295.985596	1754.436768	44.602364
803.865967	1318.639404	2289.479492	1745.504883	43.968670
804.177979	1316.103271	2288.045898	1740.873535	43.703224
804.489807	1314.890381	2288.045654	1743.519897	44.045338
804.801697	1311.251343	2286.281494	1742.858398	44.266022
805.113464	1310.369263	2280.547363	1743.078857	44.601048
805.425232	1306.730225	2282.311523	1740.873535	44.500988
805.736938	1305.627563	2277.900879	1737.013916	44.368835
806.048584	1300.554932	2273.269287	1738.447144	45.017555
806.360168	1297.467285	2267.535400	1734.146606	45.015327
806.671753	1296.915771	2257.280029	1732.602661	45.366837
806.983276	1298.790527	2257.831299	1728.081787	44.762566
807.294739	1300.223999	2252.979248	1727.089233	44.803242
807.606140	1301.437012	2248.568359	1724.332397	44.650131
807.917542	1301.326782	2247.906738	1720.914063	44.326660
808.228760	1301.216431	2242.393311	1720.031982	44.499134
808.540100	1300.223999	2231.917236	1713.084839	44.312958
808.851318	1297.026123	2225.080322	1709.335571	44.427303
809.162476	1297.356934	2217.361328	1703.160156	44.108837
809.473633	1297.246704	2212.840088	1704.483398	44.477898
809.784668	1291.071411	2206.113525	1700.734131	44.769821
810.095703	1295.813110	2194.975830	1694.448608	44.334076
810.406738	1298.570068	2186.594971	1691.140381	44.207130
810.717590	1302.870605	2174.465332	1685.516724	43.901840
811.028503	1303.311890	2163.548096	1679.672241	43.750816
811.339294	1303.201416	2153.733887	1674.599487	43.666538
811.650085	1302.209106	2148.661377	1663.351807	42.665455
811.960876	1299.231812	2137.082764	1661.256470	43.208717
812.271545	1301.988525	2129.143311	1656.294312	42.834278
812.582153	1309.045898	2126.496582	1651.442383	41.885887
812.892761	1307.281616	2116.902832	1649.677979	42.290932
813.203308	1302.980957	2115.579590	1649.126465	42.597351
813.513855	1303.973511	2111.058594	1651.221680	43.024975
813.824280	1303.311768	2107.530029	1647.361938	42.780697
814.134705	1301.988525	2105.765869	1645.266968	42.708153
814.445068	1301.437012	2096.943604	1645.708008	43.276951
814.755371	1301.437012	2098.156738	1641.297241	42.657440
815.065613	1299.562378	2102.016113	1644.053955	42.929775
815.375854	1302.980835	2101.354492	1642.840942	42.569054
815.686035	1302.208984	2104.111328	1646.480103	42.931801
815.996155	1303.311646	2104.442139	1641.628174	42.229889
816.306152	1308.053467	2105.544922	1643.613037	42.076885
816.616211	1306.840454	2114.036133	1648.575195	42.336048
816.926208	1303.091187	2117.675049	1649.347046	42.507084
817.236145	1303.752930	2126.166016	1650.449951	42.156067
817.546021	1304.524780	2139.619141	1656.073853	42.096928
817.855774	1305.186401	2151.638916	1666.439575	42.678493
818.165588	1305.958252	2168.951660	1678.128174	43.125465
818.475281	1309.928101	2192.218750	1689.927246	43.069611
818.784973	1305.406860	2222.102783	1703.601196	43.437996
819.094604	1299.231689	2250.112061	1717.164795	43.952229
819.404175	1298.790405	2295.434082	1736.241943	43.892471
819.713684	1298.680298	2358.620117	1771.418945	44.600517
820.023254	1297.577515	2484.661865	1841.221558	45.796581
820.332642	1295.923340	2704.766113	1964.065063	47.424862
820.642090	1295.923584	2994.231445	2114.035889	48.172203
820.951416	1296.144043	3298.804688	2270.733398	48.664726
821.260681	1292.725586	3552.982910	2396.333984	48.826672
821.569946	1293.497559	3751.914551	2496.461426	48.932457
821.879150	1294.159180	3915.779785	2574.644775	48.843285
822.188293	1295.592773	4045.460449	2638.271729	48.827038
822.497437	1298.018799	4152.204102	2694.951904	48.943321
822.806458	1298.018799	4247.811035	2736.414551	48.762611
823.115479	1298.790649	4328.861328	2776.112793	48.755367
823.424438	1300.334473	4405.721191	2811.951172	48.677246
823.733337	1295.813232	4468.245605	2848.230957	48.934620
824.042236	1296.144043	4520.073730	2873.593506	48.929401
824.351013	1295.372192	4567.932129	2895.537842	48.896450
824.659790	1297.467407	4607.079102	2919.577148	49.012085
824.968445	1297.908447	4665.522949	2955.305420	49.215755
825.277100	1301.106445	4735.656250	2994.672852	49.309708
825.585693	1304.635010	4822.220703	3039.553711	49.321293
825.894287	1309.376709	4879.562012	3074.069092	49.428593
826.202820	1314.890381	4901.395996	3079.362061	49.197517
826.511292	1313.787720	4834.019531	3039.774170	49.030476
826.819702	1316.213745	4662.435059	2945.490967	48.690063
827.128113	1320.073242	4409.911133	2808.973633	48.187008
827.436401	1319.962769	4141.618164	2668.817383	47.803665
827.744751	1321.506592	3911.148438	2557.111328	47.713345
828.052917	1322.057983	3731.293945	2462.166504	47.322411
828.361145	1319.521729	3583.308105	2391.481689	47.352524
828.669312	1320.183350	3465.977295	2331.934814	47.150448
828.977356	1315.993164	3366.732178	2284.958740	47.249580
829.285400	1312.464233	3275.867920	2242.062500	47.346264
829.593384	1310.920532	3197.353516	2200.599854	47.161991
829.901306	1307.833008	3122.257813	2170.715820	47.556824
830.209167	1312.133667	3057.858887	2135.649170	47.173260
830.517029	1312.795288	2998.532471	2109.073242	47.236187
830.824829	1314.669922	2946.704346	2081.615234	46.993206
831.132568	1311.802856	2898.073975	2055.039551	46.854328
831.440247	1308.935791	2841.724609	2019.531982	46.359692
831.747925	1308.384399	2783.059814	1986.891602	46.010612
832.055481	1305.848022	2716.786133	1953.148071	45.877281
832.363037	1306.178833	2668.706787	1926.462036	45.524437
832.670532	1304.635010	2628.898438	1908.267090	45.582478
832.977966	1306.178833	2611.034180	1895.916870	45.195663
833.285400	1308.825317	2591.847168	1882.794312	44.735714
833.592712	1306.840454	2572.659668	1877.060059	45.047478
833.900085	1307.391724	2552.700195	1867.135620	44.948212
834.207275	1302.760254	2539.798096	1855.226196	44.660393
834.514526	1301.767822	2527.668213	1853.682251	45.021149
834.821716	1302.760376	2517.964111	1852.138550	45.208729
835.128784	1303.091187	2508.921631	1847.396729	45.139477
835.435852	1306.399292	2503.297852	1840.229126	44.601093
835.742798	1308.163696	2494.696533	1842.654907	45.046474
836.049805	1307.722534	2485.323730	1841.883179	45.360062
836.356750	1309.597168	2474.847656	1836.149048	45.187870
836.663574	1306.950562	2463.930664	1833.392090	45.501347
836.970398	1307.060913	2452.021484	1820.269775	44.823277
837.277161	1304.524658	2437.244629	1812.219727	44.820881
837.583923	1305.075928	2424.122314	1799.648682	44.195911
837.890564	1308.053345	2396.774658	1786.967285	43.988663
838.197205	1308.604858	2354.650391	1766.787354	43.801392
838.503784	1311.692505	2308.005371	1739.439697	42.933018
838.810303	1309.376709	2257.059326	1711.430664	42.424957
839.116699	1306.509766	2211.626953	1689.155518	42.275826
839.423096	1309.046021	2160.791260	1667.321655	42.063709
839.729492	1308.715210	2120.541992	1652.545044	42.352612
840.035828	1304.745361	2089.996582	1639.312256	42.606350
840.342102	1302.760620	2067.500732	1629.498169	42.725304
840.648315	1308.494751	2039.601807	1618.360474	42.383083
840.954529	1311.692505	2021.517090	1607.333496	41.649868
841.260620	1313.015747	2003.432251	1594.321289	40.744324
841.566711	1310.258911	1989.207275	1587.704834	40.864067
841.872803	1309.707397	1968.365845	1580.206299	41.068161
842.178772	1312.795044	1954.250977	1566.201660	39.504913
842.484680	1310.920532	1935.394165	1556.607788	39.343094
842.790588	1312.574585	1921.830688	1549.991577	38.968342
843.096436	1313.567017	1911.354858	1541.280029	38.092613
843.402222	1314.118286	1899.996826	1536.758789	38.001137
843.707947	1315.551880	1889.300415	1529.811523	37.343822
844.013611	1315.993042	1878.162720	1526.503296	37.446033
844.319275	1313.125977	1861.070679	1520.217773	37.794289
844.624817	1314.118530	1844.529785	1514.924683	37.858578
844.930359	1311.913086	1820.380005	1505.220703	38.017738
845.235901	1311.030884	1800.530884	1495.075562	37.598503
845.541321	1315.993164	1778.035400	1483.276367	36.205177
845.846680	1311.913086	1765.354004	1474.895874	35.943554
846.152039	1311.472046	1751.459839	1468.279419	35.639027
846.457275	1316.323975	1736.793335	1463.978760	35.116657
846.762512	1318.308838	1724.553223	1453.282349	33.224709
847.067749	1316.654785	1716.392822	1450.746094	33.544796
847.372925	1315.110840	1705.365479	1450.415405	34.670841
847.677979	1313.125977	1699.410889	1446.776367	34.598915
847.983032	1314.669922	1687.391235	1441.814087	34.112396
848.288025	1310.369263	1681.767456	1436.741577	34.026100
848.592957	1309.045898	1679.782349	1433.984863	33.700211
848.897888	1312.905518	1675.812744	1433.212891	33.151001
849.202759	1312.133667	1675.151001	1427.699463	31.834787
849.507507	1308.715210	1670.739990	1422.516479	31.434664
849.812317	1308.825439	1668.093506	1422.626709	31.675865
850.117004	1308.163818	1667.211182	1420.972656	31.418930
850.421631	1305.958374	1663.682617	1420.752075	32.089996
850.726257	1304.745361	1661.146240	1415.900024	31.188101
851.030823	1304.635010	1660.154053	1411.158325	29.962759
851.335327	1303.421875	1660.264282	1410.055542	29.882566
851.639771	1301.326782	1656.404785	1407.298584	29.844654
851.944153	1296.805664	1654.419800	1404.762329	30.188030
852.248535	1297.136353	1657.507446	1401.564697	28.978003
852.552856	1295.041260	1663.792725	1398.807739	28.139950
852.857056	1291.733032	1663.131104	1393.735107	27.464352
853.161255	1286.770874	1662.579834	1392.632324	28.168953
853.465393	1284.124268	1660.594727	1388.442017	27.709412
853.769531	1279.382568	1652.765381	1380.723022	27.141167
854.073547	1280.044189	1649.788086	1376.532593	26.096010
854.377563	1280.375000	1644.715576	1373.775879	25.635595
854.681580	1280.485474	1645.156616	1375.319702	26.005411
854.985474	1280.926392	1640.194336	1374.217163	25.966908
855.289307	1279.492920	1640.525269	1372.232178	25.687243
855.593140	1276.736084	1639.312134	1373.555420	26.703180
855.896851	1277.066895	1640.525269	1377.745850	27.700272
856.200623	1276.736084	1638.981445	1378.627930	28.127853
856.504272	1275.633423	1635.783691	1377.414917	28.260841
856.807922	1278.169678	1635.452759	1374.547852	26.975298
857.111389	1280.044312	1639.312256	1370.026733	25.046047
857.414978	1278.390259	1637.768555	1365.946411	24.363228
857.718445	1279.382568	1635.121826	1367.600586	24.798506
858.021790	1284.565308	1632.585693	1367.380005	23.795933
858.325195	1287.322144	1635.452881	1367.380005	22.996492
858.628479	1291.071655	1630.380371	1370.026733	23.269392
858.931763	1289.637817	1624.315308	1367.380127	23.229023
859.234985	1288.866089	1626.410522	1367.821289	23.391054
859.538147	1291.071533	1623.763916	1369.034180	23.433853
859.841248	1294.710571	1626.410522	1369.695801	22.606342
860.144287	1297.687866	1629.828857	1372.011475	22.377127
860.447266	1298.459717	1628.615723	1374.768188	23.112852
860.750305	1296.915894	1632.585571	1376.312012	23.653051
861.053223	1299.121338	1634.680786	1371.349731	21.524769
861.356018	1295.592651	1635.342407	1373.114136	22.817230
861.658813	1294.489746	1634.460205	1375.319702	23.775581
861.961609	1299.672607	1630.049316	1373.996460	22.496698
862.264343	1299.562256	1629.056885	1374.547852	22.757759
862.567017	1301.216309	1630.821289	1375.209595	22.449080
862.869629	1302.539673	1627.843994	1377.525146	23.050869
863.172180	1302.429443	1623.322754	1378.076416	23.573870
863.474670	1302.980713	1619.463135	1382.266968	25.052341
863.777161	1304.083496	1617.037231	1384.472168	25.687078
864.079590	1303.973267	1616.044800	1381.605225	24.876335
864.381958	1302.760254	1622.330322	1383.700562	25.327875
864.684265	1300.665161	1622.991943	1383.369751	25.658615
864.986511	1297.246704	1621.889160	1382.266968	26.188892
865.288757	1299.341797	1621.338013	1385.685303	26.815069
865.590942	1301.988281	1621.117432	1386.567383	26.503096
865.893066	1303.642578	1622.661133	1386.567383	25.993725
866.195068	1301.988403	1619.352905	1388.331787	27.206377
866.497131	1300.223999	1619.353027	1388.883179	27.781609
866.799133	1304.193848	1623.874023	1388.552246	26.388374
867.100952	1304.965698	1619.794067	1388.883179	26.654993
867.402832	1306.619751	1616.816650	1392.411865	27.657309
867.704651	1309.597168	1615.272827	1395.389282	28.066387
868.006409	1309.045898	1617.808960	1392.522095	27.035681
868.308105	1307.612305	1620.345459	1389.986084	26.339958
868.609802	1310.810303	1620.896973	1386.236816	24.324333
868.911438	1310.148682	1618.360474	1381.715698	23.220078
869.213013	1310.479370	1617.478394	1379.620361	22.521566
869.514465	1310.258911	1621.117432	1382.156738	23.128794
869.815979	1312.133545	1620.345459	1383.479980	23.148500
870.117371	1311.802734	1622.771362	1386.236816	23.936203
870.418701	1315.000610	1624.425537	1385.795776	22.879593
870.720093	1317.536987	1622.440674	1385.906006	22.423153
871.021301	1319.080811	1621.558350	1385.464966	21.946804
871.322571	1320.955322	1622.550781	1387.229248	21.974443
871.623718	1319.301392	1625.638550	1390.427124	23.218121
871.924805	1318.088379	1625.417969	1386.898193	22.389584
872.225891	1318.970581	1625.528442	1387.339233	22.302038
872.526917	1321.396484	1629.277588	1388.552246	21.812239
872.827881	1323.491699	1626.631104	1385.795532	20.552866
873.128784	1318.970459	1619.242920	1384.361938	21.777382
873.429626	1317.867798	1620.345581	1380.171631	20.597820
873.730408	1317.757568	1618.691406	1379.068970	20.373714
874.031189	1314.338989	1621.338013	1375.209351	19.827543
874.331848	1314.780151	1621.227661	1374.657959	19.539335
874.632568	1311.692627	1620.786499	1378.297119	21.548306
874.933167	1311.251343	1620.896973	1380.833374	22.471504
875.233704	1309.156250	1623.102295	1382.928589	23.498413
875.534241	1308.494629	1626.630981	1383.479980	23.570192
875.834717	1307.171509	1627.513184	1384.141724	24.027536
876.135071	1303.752930	1634.570679	1386.457275	24.999971
876.435425	1302.539917	1634.019165	1385.906006	25.149715
876.735779	1304.635132	1635.893799	1386.457275	24.700378
877.036011	1298.901001	1636.004150	1390.096191	27.052607
877.336182	1297.246948	1638.650635	1395.499634	28.779036
877.636353	1294.931152	1645.928589	1398.807739	29.594685
877.936462	1294.931030	1651.001099	1400.902954	29.761538
878.236511	1297.908447	1661.366821	1409.614624	30.734241
878.536560	1297.798218	1679.782349	1417.995239	31.466496
878.836487	1297.246826	1703.049805	1434.315674	33.777191
879.136414	1294.379639	1762.486816	1464.089233	36.254433
879.436279	1291.843506	1852.138428	1511.506470	39.204884
879.736084	1293.276855	1963.513550	1570.502441	41.362339
880.035828	1290.961182	2086.908691	1632.916626	42.962059
880.335510	1293.938477	2202.694824	1692.133057	43.817528
880.635193	1293.276855	2303.594238	1740.873535	44.302582
880.934753	1297.797852	2393.576904	1782.335938	44.218594
881.234314	1296.474854	2473.193359	1818.174438	44.335121
881.533752	1298.569946	2539.467529	1855.446655	44.876926
881.833252	1297.798096	2600.889404	1886.984619	45.214523
882.132629	1298.570068	2658.892822	1913.008911	45.168606
882.431946	1298.680298	2704.766113	1935.614990	45.298424
882.731323	1299.893433	2746.559326	1956.346191	45.376942
883.030579	1298.459839	2780.192627	1974.982178	45.657513
883.329712	1298.018677	2813.053955	1988.766357	45.592846
883.628845	1298.790527	2833.675049	1999.462646	45.649826
883.927979	1298.900879	2847.128174	2005.968750	45.669514
884.226990	1299.452148	2858.045166	2006.079102	45.337490
884.526001	1296.144043	2861.684082	2004.314575	45.234905
884.824951	1296.695435	2855.398682	2001.667969	45.228142
885.123840	1295.702881	2838.306396	1992.184326	45.149738
885.422729	1297.687744	2793.645996	1968.034790	44.810547
885.721497	1300.223999	2709.948975	1925.469727	44.352318
886.020203	1301.216553	2605.962158	1870.664307	43.644352
886.318909	1302.760376	2484.331299	1809.793945	42.911819
886.617554	1302.980835	2367.773193	1753.885620	42.346733
886.916138	1302.980957	2268.858643	1704.042358	41.523003
887.214661	1300.554932	2181.522705	1663.020996	41.144077
887.513184	1301.106323	2099.369629	1627.072144	40.834373
887.811523	1298.018677	2028.905518	1592.997803	40.359070
888.109924	1303.752808	1794.686401	1546.903931	49.528313
888.408264	1292.174194	1871.105347	1449.643433	27.199993
888.706543	1294.489868	1690.478760	1449.643433	39.181293
889.004761	1331.541504	1743.740479	1407.960449	18.539333
889.302979	1313.015747	1655.742920	1394.066040	23.648634
889.601135	1329.225830	1637.217163	1442.696289	36.842094
889.899170	1282.911255	1678.900146	1357.014526	18.713472
890.197205	1313.015747	1667.321533	1428.801880	32.679718
890.495178	1299.121338	1597.849854	1394.066040	31.782940
890.793091	1271.332642	1570.061157	1445.011963	58.139519
>>>>>End Processed Spectral Data<<<<<
