Jaz Data File
++++++++++++++++++++++++++++++++++++
Date: Thu Sep 26 04:29:16 2019
User: jaz
Dark Spectrum Present: Yes
Reference Spectrum Present: Yes
Processed Spectrum Present: Yes
Spectrometers: JAZA3541
Integration Time (usec): 100000 (JAZA3541)
Spectra Averaged: 1 (JAZA3541)
Boxcar Smoothing: 10 (JAZA3541)
Correct for Electrical Dark: No (JAZA3541)
Strobe/Lamp Enabled: Yes (JAZA3541)
Correct for Detector Non-linearity: No (JAZA3541)
Correct for Stray Light: No (JAZA3541)
Number of Pixels in Processed Spectrum: 2048
>>>>>Begin Processed Spectral Data<<<<<
W	D	R	S	P
190.543274	0.000000	0.000000	0.000000	0.000000
190.921555	0.000000	0.000000	0.000000	0.000000
191.299805	1296.805664	1336.172974	1238.912598	-147.058731
191.678024	1229.649658	1322.278564	1218.071045	-12.500000
192.056229	1345.435913	1313.015747	1181.019409	507.142700
192.434387	1331.541504	1278.279907	1199.545166	247.826477
192.812531	1303.752808	1324.594360	1211.123901	-444.443390
193.190659	1310.699951	1296.805664	1292.174194	133.333633
193.568741	1319.962891	1359.330200	1190.282349	-329.411743
193.946793	0.000000	0.000000	0.000000	0.000000
194.324829	1207.815674	1211.785522	1102.174683	-2661.083496
194.702835	1271.994385	1273.317627	1161.501343	-8350.174805
195.080811	1337.606445	1335.070313	1222.151245	4552.411621
195.458755	1337.827148	1332.203125	1222.592285	2048.975586
195.836685	1338.268188	1331.541626	1218.843018	1775.426514
196.214569	1339.811890	1336.172974	1218.842896	3324.313965
196.592422	1341.907104	1340.032471	1220.166260	6494.113281
196.970261	1342.679077	1342.127686	1219.835327	22278.857422
197.348068	1343.781860	1343.120117	1220.827881	18580.316406
197.725861	1344.222900	1342.127563	1223.584595	5757.465820
198.103622	1343.561279	1338.157837	1223.805054	2216.294922
198.481323	1340.253052	1337.496216	1226.782593	4115.967285
198.859039	1337.937378	1335.290771	1226.231201	4220.732422
199.236694	1335.070313	1335.621460	1228.767334	-19287.574219
199.614334	1333.416138	1335.511230	1224.356567	-5205.477051
199.991959	1329.115479	1337.937134	1226.010742	-1168.768555
200.369553	1324.373657	1337.826904	1228.105835	-715.573120
200.747101	1322.499023	1341.355835	1230.642090	-487.128662
201.124619	1320.514038	1341.576294	1231.634521	-421.984802
201.502136	1316.323608	1346.538452	1231.524292	-280.654480
201.879623	1313.677246	1349.736450	1228.326416	-236.696381
202.257065	1311.030640	1351.500854	1227.995483	-205.175964
202.634476	1309.927979	1352.934570	1227.775024	-191.024094
203.011871	1305.186279	1354.809082	1225.459229	-160.666153
203.389221	1303.091064	1361.866455	1226.120850	-130.956528
203.766571	1304.745117	1367.931519	1230.311279	-117.800407
204.143875	1300.334229	1365.064331	1230.862671	-107.324959
204.521164	1296.254272	1365.284912	1228.767456	-97.763565
204.898392	1297.798096	1363.300049	1231.744873	-100.841606
205.275620	1298.459717	1368.703369	1227.995483	-100.314026
205.652817	1293.718018	1368.482910	1226.120972	-90.412819
206.029984	1293.607666	1372.673218	1223.695068	-88.423592
206.407135	1291.953613	1374.988892	1221.269043	-85.125954
206.784225	1292.394775	1374.437378	1222.702515	-84.946426
207.161301	1293.607910	1372.893555	1223.033447	-89.012917
207.538376	1298.570190	1373.555176	1225.790161	-97.059471
207.915405	1302.209229	1370.798462	1223.805176	-114.309563
208.292404	1303.422119	1370.798584	1222.151001	-120.622414
208.669373	1305.406860	1366.718506	1220.607178	-138.309265
209.046310	1302.319336	1363.961670	1221.158569	-131.664001
209.423218	1303.863159	1361.645874	1219.725098	-145.611130
209.800095	1305.737793	1357.124756	1216.637451	-173.390945
210.176956	1308.715210	1353.265137	1219.063477	-201.238785
210.553787	1308.163818	1355.911743	1219.725220	-185.219772
210.930603	1309.597412	1356.242554	1221.599731	-188.653473
211.307358	1315.221313	1353.485718	1221.709961	-244.382095
211.684113	1317.316406	1349.846680	1219.725098	-300.001495
212.060837	1316.985596	1348.413086	1223.474243	-297.546356
212.437531	1316.765015	1350.839233	1224.466675	-270.874420
212.814178	1314.008179	1354.037109	1223.143433	-226.997681
213.190826	1312.574585	1351.280273	1224.246094	-228.205444
213.567413	1313.125977	1352.383057	1226.231079	-221.348343
213.943985	1310.258789	1357.345337	1229.539185	-171.428162
214.320541	1309.266479	1357.124756	1231.413818	-162.673355
214.697052	1307.612305	1361.315186	1230.200806	-144.147766
215.073563	1309.266357	1363.300049	1230.641968	-145.509933
215.449997	1303.863159	1360.874023	1229.318848	-130.754578
215.826431	1301.326904	1362.086914	1226.782593	-122.686470
216.202850	1300.334351	1364.954102	1229.098267	-110.238869
216.579224	1298.459717	1369.695923	1229.429077	-96.903870
216.955582	1300.885742	1374.989014	1228.326416	-97.916496
217.331894	1300.554932	1374.217041	1230.201050	-95.508919
217.708191	1300.003418	1376.863647	1230.972900	-89.813049
218.084442	1300.113770	1383.480103	1229.539429	-84.655685
218.460678	1296.915771	1384.141602	1228.987915	-77.875847
218.836899	1295.041260	1385.685303	1226.892822	-75.182480
219.213074	1292.615234	1387.339478	1224.687256	-71.711288
219.589233	1294.269287	1392.191650	1227.333984	-68.355484
219.965347	1296.805542	1398.697510	1227.333740	-68.181824
220.341431	1295.592529	1399.359131	1227.995483	-65.143356
220.717499	1296.254150	1400.241455	1227.443970	-66.171715
221.093552	1295.041260	1402.336548	1228.657104	-61.870522
221.469543	1299.011108	1407.078247	1226.231079	-67.347046
221.845535	1302.980835	1407.409058	1225.459229	-74.234344
222.221466	1305.296631	1411.709595	1224.135986	-76.269508
222.597397	1305.186279	1417.884766	1227.554443	-68.884544
222.973297	1302.760376	1426.706543	1227.554443	-60.676289
223.349167	1300.554932	1437.403076	1226.451782	-54.149910
223.725006	1297.467285	1446.996826	1231.744873	-43.952793
224.100800	1295.041260	1454.385010	1233.288696	-38.754307
224.476578	1295.372070	1465.081543	1236.486572	-34.697826
224.852325	1297.577515	1475.778076	1244.867188	-29.579214
225.228058	1298.680298	1495.847778	1246.852173	-26.286345
225.603760	1297.577637	1523.195313	1254.901978	-18.915033
225.979416	1295.261963	1552.086792	1259.202515	-14.040483
226.355057	1295.372192	1590.351318	1262.621094	-11.102853
226.730652	1296.805664	1642.069214	1271.222412	-7.409775
227.106232	1296.915894	1691.912231	1277.507935	-4.913453
227.481796	1294.159180	1736.903687	1286.770874	-1.668751
227.857315	1292.946167	1778.145630	1286.881104	-1.250014
228.232788	1296.033813	1815.638184	1293.276978	-0.530564
228.608246	1296.695435	1848.058350	1299.452148	0.499982
228.983704	1297.026245	1883.345459	1304.524780	1.278917
229.359100	1297.577637	1916.206665	1313.015625	2.495516
229.734482	1293.166748	1945.870117	1316.434082	3.564764
230.109833	1290.189453	1973.768921	1318.970459	4.210338
230.485153	1290.189331	1989.979126	1316.654785	3.781915
230.860443	1289.527710	2012.585205	1323.601929	4.712519
231.235703	1293.166748	2031.331421	1331.100586	5.138940
231.610931	1293.607788	2055.481445	1336.614136	5.644814
231.986145	1293.056396	2079.300049	1338.598999	5.792428
232.361313	1290.189209	2098.708252	1340.363403	6.205691
232.736465	1287.983765	2121.313965	1340.142822	6.259110
233.111572	1285.888550	2134.656982	1343.781860	6.820860
233.486664	1288.865845	2141.052734	1344.884521	6.573520
233.861725	1290.409668	2141.604248	1346.317993	6.568219
234.236755	1292.284302	2138.957520	1349.736450	6.785635
234.611771	1296.474731	2120.873047	1345.546021	5.952376
234.986740	1298.900635	2101.023926	1348.302856	6.158931
235.361679	1299.782959	2083.710938	1345.435791	5.823600
235.736588	1298.570068	2073.235107	1349.736450	6.604969
236.111496	1297.908447	2069.375488	1352.603516	7.089748
236.486343	1298.459717	2071.139893	1357.565918	7.649504
236.861160	1301.106323	2071.250000	1361.425537	7.832203
237.235962	1300.334351	2079.961426	1361.976807	7.906659
237.610733	1302.760376	2089.996338	1371.349976	8.712711
237.985474	1301.437134	2106.978271	1383.149170	10.143744
238.360199	1300.665283	2140.501221	1395.830322	11.331385
238.734879	1301.767944	2177.662842	1410.055664	12.363095
239.109543	1300.334473	2227.616455	1428.250610	13.794740
239.484177	1304.635132	2281.650146	1447.768921	14.650111
239.858749	1310.810303	2350.680908	1477.652710	16.044535
240.233322	1311.361694	2434.047119	1507.426392	17.463903
240.607864	1313.126099	2511.899414	1539.074463	18.848297
240.982391	1314.559570	2592.618896	1567.414673	19.784302
241.356857	1316.213745	2651.063232	1590.351196	20.536957
241.731308	1315.000610	2704.435059	1614.059937	21.523817
242.105728	1317.977905	2744.684814	1634.129517	22.159534
242.480118	1312.354126	2785.926758	1656.404541	23.348045
242.854492	1310.479492	2835.880127	1680.113037	24.231899
243.228836	1309.045898	2893.442383	1709.776245	25.292303
243.603134	1312.905518	2957.290283	1744.843140	26.267429
243.977402	1312.023193	3046.721436	1780.571655	27.010372
244.351654	1310.920532	3168.241699	1829.642822	27.928518
244.725861	1310.810303	3315.235107	1887.645996	28.778116
245.100067	1311.912964	3466.970215	1949.398804	29.580925
245.474213	1311.361694	3603.377197	2009.938477	30.478710
245.848343	1316.985474	3710.341553	2059.009766	31.003508
246.222443	1318.198486	3794.700195	2101.134033	31.614576
246.596512	1318.419067	3855.019287	2133.113281	32.117565
246.970566	1321.286133	3892.181641	2153.403564	32.366833
247.344574	1320.845093	3904.862793	2163.879395	32.624943
247.718567	1317.206055	3891.740234	2167.187256	33.014950
248.092529	1318.749756	3859.430420	2171.267090	33.554684
248.466431	1315.441650	3833.075195	2168.289551	33.874981
248.840332	1313.236206	3807.051025	2166.635498	34.220634
249.214203	1311.030640	3809.476563	2175.236816	34.589752
249.588043	1313.787598	3825.797363	2185.933105	34.719032
249.961838	1310.038330	3853.696045	2204.018066	35.145443
250.335617	1313.677124	3886.888428	2224.528564	35.397457
250.709381	1313.456665	3901.664795	2239.084717	35.763279
251.083084	1318.198608	3899.569824	2241.069824	35.751202
251.456787	1314.780029	3882.367188	2229.490967	35.625313
251.830460	1316.434204	3829.656738	2214.052734	35.715839
252.204071	1313.456787	3746.069824	2187.366699	35.924740
252.577667	1310.038452	3638.995117	2149.984375	36.065334
252.951248	1310.369263	3513.615234	2107.860596	36.196198
253.324799	1308.604858	3406.099365	2066.177246	36.117966
253.698303	1305.737671	3326.152100	2035.521606	36.120506
254.071793	1305.296631	3267.817627	2016.113647	36.219589
254.445236	1304.083618	3233.853760	1999.572876	36.040005
254.818665	1300.113770	3219.959473	1990.089478	35.939121
255.192062	1300.003418	3219.077393	1993.177124	36.120216
255.565430	1300.444458	3243.888672	1997.918945	35.888577
255.938782	1301.878052	3283.365967	2011.261719	35.800556
256.312103	1304.745117	3340.266846	2028.023193	35.532810
256.685364	1306.730225	3419.442383	2054.819336	35.408947
257.058594	1304.965820	3518.357178	2085.585449	35.268036
257.431793	1302.098633	3646.714600	2124.622070	35.081371
257.804993	1302.760254	3790.178955	2171.377686	34.920437
258.178162	1299.672729	3928.240234	2221.000244	35.050556
258.551270	1298.128906	4052.517578	2257.941650	34.846672
258.924377	1294.379639	4145.587402	2289.038330	34.885521
259.297485	1293.938599	4222.999023	2321.568848	35.083954
259.670502	1293.056396	4286.625977	2342.520508	35.057281
260.043518	1295.151489	4346.063477	2356.414795	34.785114
260.416473	1298.569946	4394.473145	2369.427002	34.589485
260.789459	1297.026123	4449.830078	2387.511963	34.587811
261.162354	1297.246704	4497.467773	2400.634033	34.478470
261.535278	1298.349365	4541.796875	2411.110352	34.307968
261.908142	1298.790527	4576.092285	2416.954590	34.118435
262.280975	1301.216553	4595.279297	2422.468262	34.038567
262.653717	1302.870605	4609.834961	2429.966797	34.082500
263.026520	1300.113892	4627.809570	2431.841797	34.009357
263.399261	1297.357056	4643.688477	2433.054688	33.938587
263.771973	1296.915894	4654.495605	2429.526123	33.732937
264.144653	1298.239258	4653.502930	2428.643799	33.690483
264.517334	1301.106323	4633.103027	2419.490967	33.564999
264.889954	1302.208862	4586.678223	2403.832520	33.540386
265.262543	1305.627563	4506.179199	2373.948242	33.379265
265.635071	1308.053589	4405.610840	2329.398193	32.972584
266.007599	1311.802856	4310.224609	2283.745361	32.415134
266.380127	1312.133545	4240.201660	2247.906982	31.958733
266.752594	1315.882935	4205.575684	2228.167969	31.570311
267.125031	1315.000732	4197.084473	2213.501953	31.175404
267.497437	1313.236328	4212.963867	2211.627197	30.981907
267.869843	1316.544556	4239.098633	2213.832520	30.702185
268.242218	1313.567261	4277.473633	2224.639404	30.738899
268.614532	1311.913208	4335.697754	2240.959717	30.724625
268.986816	1312.354126	4430.973633	2263.675781	30.504574
269.359100	1311.471924	4539.150879	2293.780273	30.433893
269.731354	1310.038452	4652.510742	2329.949707	30.513680
270.103516	1311.030762	4749.219727	2354.540283	30.350557
270.475708	1311.361572	4830.049805	2376.705322	30.276730
270.847839	1314.890381	4902.499023	2391.592041	30.011681
271.219971	1318.419067	4961.053711	2409.235596	29.945810
271.592041	1320.403809	5006.596191	2418.829346	29.798378
271.964081	1321.065552	5036.369629	2419.822021	29.573795
272.336151	1316.434204	5064.048340	2420.924805	29.471832
272.708130	1316.654785	5090.182129	2422.248047	29.298668
273.080109	1313.015869	5107.385254	2426.548584	29.346977
273.452026	1311.582275	5141.238770	2436.693848	29.378916
273.823914	1310.369263	5176.085449	2444.082031	29.327366
274.195770	1310.369263	5215.893555	2454.998779	29.307961
274.567627	1309.376831	5261.987793	2466.467041	29.274075
274.939423	1310.700073	5304.332031	2480.030029	29.279863
275.311249	1312.243896	5345.464355	2495.137451	29.328760
275.682983	1310.479492	5376.120117	2503.518311	29.344423
276.054688	1309.707520	5401.151855	2505.282959	29.221354
276.426422	1307.943115	5403.577148	2500.872070	29.126844
276.798065	1312.243896	5370.495117	2494.696777	29.137005
277.169708	1313.236206	5325.172852	2477.714844	29.025351
277.541321	1317.757446	5277.536133	2456.432129	28.756018
277.912903	1316.985352	5267.832031	2453.123779	28.756834
278.284424	1316.764893	5279.741211	2456.101074	28.749508
278.655945	1315.882813	5301.685547	2469.223877	28.936230
279.027435	1312.574707	5332.010254	2478.817627	29.015093
279.398865	1310.920532	5391.226563	2494.255371	29.001129
279.770294	1307.502075	5467.424805	2522.926270	29.217470
280.141663	1310.810303	5539.763672	2551.597168	29.340284
280.513031	1313.015869	5615.631348	2574.092773	29.309544
280.884369	1315.993164	5680.912598	2597.470703	29.358561
281.255676	1314.559570	5725.462402	2612.247314	29.420004
281.626953	1313.787720	5763.727051	2626.913574	29.508848
281.998199	1316.654907	5805.189453	2642.241455	29.532724
282.369385	1313.346680	5856.245605	2660.546631	29.655071
282.740540	1313.236328	5915.572754	2680.615967	29.710554
283.111694	1311.802856	5983.280273	2705.427734	29.832636
283.482819	1310.479492	6070.064941	2738.729980	30.007875
283.853912	1314.559570	6165.339844	2776.994385	30.148445
284.224945	1315.441772	6257.858398	2815.369385	30.348063
284.595978	1313.346436	6348.502930	2850.876953	30.535904
284.966980	1311.030762	6425.914551	2888.590332	30.842529
285.337952	1309.817749	6500.238281	2926.193359	31.141516
285.708893	1306.730103	6535.746094	2954.202637	31.506357
286.079803	1305.406860	6558.352051	2980.006348	31.879248
286.450684	1304.745239	6574.893066	3002.501953	32.214592
286.821533	1307.391846	6588.677246	3022.020264	32.466122
287.192322	1306.399414	6596.506836	3047.603516	32.914345
287.563110	1307.391968	6602.571289	3068.004150	33.249340
287.933868	1303.642700	6627.272461	3098.770020	33.719986
288.304596	1299.672852	6668.735352	3143.320313	34.338348
288.675262	1300.885742	6725.304199	3197.243652	34.959652
289.045929	1301.326782	6777.683594	3252.379883	35.626842
289.416565	1300.113770	6826.645020	3299.576660	36.179348
289.787170	1296.805664	6843.957520	3347.435303	36.967251
290.157745	1293.718018	6845.170898	3380.737061	37.594105
290.528259	1293.497437	6840.870605	3418.671143	38.309555
290.898773	1294.820801	6830.614746	3447.672363	38.889664
291.269226	1294.269287	6813.852539	3474.909668	39.507339
291.639679	1290.630371	6797.202148	3510.527832	40.313602
292.010101	1294.820801	6810.876465	3555.078125	40.975971
292.380463	1293.828369	6840.539551	3603.708008	41.644131
292.750824	1298.680298	6882.332031	3654.764160	42.196114
293.121155	1300.775391	6928.756836	3702.291748	42.671005
293.491455	1307.502197	6990.068359	3763.492920	43.219746
293.861725	1310.920532	7072.000977	3820.394043	43.559078
294.231964	1313.125977	7184.479004	3889.975830	43.888519
294.602142	1314.669678	7298.721680	3971.136963	44.392452
294.972321	1314.669800	7398.077148	4045.570801	44.890976
295.342468	1316.213623	7496.991699	4114.711914	45.277443
295.712555	1317.095825	7559.295410	4169.406250	45.693996
296.082672	1318.419067	7583.776855	4203.039551	46.040794
296.452728	1315.882813	7585.761719	4220.683105	46.329449
296.822693	1319.080688	7589.400879	4228.622559	46.401810
297.192657	1321.065552	7589.180664	4247.369141	46.685543
297.562622	1322.388916	7606.824219	4261.814941	46.773109
297.932556	1326.027954	7627.886230	4289.052734	47.018272
298.302460	1328.233398	7634.833496	4303.829102	47.182247
298.672333	1327.792358	7640.347656	4317.172363	47.356098
299.042145	1329.005127	7636.597656	4333.381836	47.631115
299.411957	1330.218140	7623.033691	4333.492188	47.725441
299.781677	1326.027954	7584.768555	4325.552734	47.925373
300.151428	1326.579224	7523.125977	4311.106934	48.164371
300.521149	1326.248291	7458.727051	4286.626465	48.273762
300.890839	1322.829956	7386.829590	4258.286621	48.407928
301.260468	1317.095825	7310.961914	4216.823730	48.378258
301.630096	1318.418945	7223.515625	4175.802246	48.388424
301.999695	1319.080688	7102.436523	4129.818848	48.600471
302.369232	1316.323975	6976.063965	4073.028320	48.707260
302.738739	1314.449219	6859.727051	4013.040527	48.664673
303.108246	1310.699951	6722.106445	3961.873779	48.992325
303.477692	1311.251343	6610.841309	3909.384033	49.025169
303.847137	1311.361816	6522.182129	3870.788574	49.117538
304.216553	1311.361572	6456.680176	3837.706787	49.099880
304.585876	1310.369141	6397.794434	3812.344238	49.179592
304.955231	1309.597046	6350.267090	3787.422607	49.156673
305.324493	1306.619751	6311.010254	3771.543213	49.255215
305.693787	1306.178711	6280.244629	3753.789063	49.207436
306.063049	1306.509521	6274.399414	3748.606445	49.157631
306.432251	1307.391846	6272.414551	3750.701660	49.210449
306.801422	1305.627319	6267.783691	3743.533936	49.129986
307.170593	1304.524658	6268.334961	3744.194824	49.149139
307.539673	1303.642456	6275.171875	3748.605713	49.179302
307.908783	1304.304077	6290.831055	3754.340088	49.133118
308.277832	1302.650146	6307.150879	3769.889160	49.300400
308.646851	1300.444702	6338.357910	3793.818115	49.492191
309.015839	1303.973389	6378.717773	3816.864990	49.517601
309.384796	1298.239258	6410.586914	3846.638428	49.847923
309.753723	1295.151733	6446.205566	3861.855957	49.828720
310.122620	1294.600220	6472.339844	3883.690430	50.004257
310.491486	1296.144165	6484.690430	3896.813232	50.123268
310.860352	1299.342041	6501.231445	3901.995605	50.032848
311.229126	1299.452148	6515.456055	3911.478760	50.077160
311.597931	1298.680298	6523.726074	3911.478760	50.005272
311.966675	1300.224121	6544.016602	3923.608643	50.028381
312.335388	1300.665161	6579.523926	3946.435303	50.120113
312.704071	1298.680298	6617.236816	3970.916016	50.243629
313.072723	1301.326904	6632.564941	3984.038330	50.320606
313.441345	1301.988525	6630.139160	3987.346436	50.399441
313.809875	1302.650146	6611.061523	3981.281738	50.460136
314.178436	1298.459839	6573.018066	3958.124268	50.424404
314.546967	1304.193970	6535.194824	3943.347412	50.452168
314.915466	1304.635132	6494.283691	3922.837158	50.450474
315.283936	1308.604858	6440.911621	3891.299072	50.322292
315.652374	1309.266602	6398.125977	3868.913574	50.299030
316.020752	1307.943237	6345.084961	3838.809082	50.244083
316.389130	1313.236328	6299.542480	3807.822510	50.028740
316.757416	1313.346680	6259.072266	3787.422363	50.024525
317.125732	1312.574585	6233.378418	3755.663574	49.648167
317.494019	1313.126099	6201.399414	3744.967529	49.748470
317.862274	1315.441895	6169.530762	3714.091064	49.415024
318.230469	1314.338989	6137.441406	3688.507813	49.224934
318.598663	1315.441772	6109.211914	3669.320313	49.102863
318.966797	1315.221069	6076.571289	3649.581543	49.027279
319.334930	1314.449341	6049.113281	3641.421387	49.147568
319.703003	1310.148682	6018.347656	3619.808105	49.056110
320.071045	1307.612305	5975.341309	3593.673340	48.975872
320.439056	1306.178711	5939.722656	3567.318359	48.799358
320.807037	1306.399292	5937.627441	3553.864990	48.528507
321.175049	1305.296631	5958.910156	3555.409180	48.351944
321.542969	1301.878052	5990.778809	3569.303467	48.357288
321.910828	1306.178711	6035.219238	3586.064453	48.210323
322.278717	1304.965820	6093.112305	3613.081055	48.204777
322.646515	1308.053345	6142.183594	3638.333740	48.204746
323.014313	1307.501953	6192.908691	3662.483643	48.204414
323.382111	1304.855469	6229.739746	3675.936768	48.144913
323.749817	1304.745117	6278.259766	3696.668457	48.093220
324.117523	1303.752808	6305.828125	3711.223877	48.129448
324.485199	1301.326782	6320.052734	3717.068848	48.134571
324.852814	1304.193970	6319.501465	3728.647217	48.341064
325.220428	1306.399292	6317.957520	3721.037842	48.181396
325.588013	1305.075928	6324.794434	3727.323730	48.254650
325.955536	1308.384155	6334.498535	3736.806885	48.316109
326.323059	1308.825317	6352.804199	3738.351074	48.166851
326.690552	1309.597168	6376.622070	3748.165283	48.126232
327.058014	1311.030640	6396.030273	3751.583740	47.995152
327.425415	1314.338989	6409.152344	3757.207520	47.948147
327.792816	1317.977905	6423.708984	3769.998779	48.024876
328.160187	1320.955322	6430.545410	3779.372314	48.113785
328.527496	1321.837646	6416.541504	3774.961426	48.150467
328.894775	1322.940430	6410.255859	3759.412842	47.893085
329.262054	1325.697144	6391.839844	3746.952393	47.792877
329.629303	1323.712280	6378.275879	3739.343262	47.791088
329.996490	1321.837646	6364.161621	3724.787598	47.655602
330.363647	1317.977905	6370.558105	3720.376465	47.547955
330.730774	1316.985718	6381.474609	3730.411377	47.653889
331.097839	1316.544434	6412.020020	3741.218018	47.584835
331.464935	1316.103394	6438.044434	3746.510742	47.450905
331.831970	1312.353882	6459.437500	3762.500732	47.602627
332.198975	1311.802490	6487.336426	3771.432617	47.524178
332.565948	1311.582153	6516.007324	3783.562988	47.497673
332.932892	1304.965698	6553.610352	3794.921143	47.439972
333.299744	1305.406860	6581.950195	3810.469482	47.475445
333.666656	1301.878174	6619.553711	3827.451172	47.493927
334.033478	1300.444702	6650.540039	3847.630859	47.610107
334.400299	1300.665283	6674.027344	3859.761230	47.625599
334.767090	1298.570068	6710.527344	3875.419922	47.614010
335.133850	1299.562622	6735.669434	3888.873047	47.631706
335.500549	1296.805786	6758.166016	3890.527100	47.492218
335.867218	1291.622803	6781.985352	3890.968018	47.343784
336.233917	1292.725586	6818.154785	3903.870117	47.256863
336.600525	1292.505005	6834.694824	3922.837158	47.460155
336.967102	1293.938599	6855.757324	3928.130127	47.362049
337.333649	1296.915894	6867.004395	3946.325195	47.564941
337.700195	1294.269287	6866.563965	3947.537842	47.615364
338.066681	1296.254150	6856.970215	3939.156982	47.528103
338.433136	1295.813110	6847.266602	3921.733887	47.301502
338.799591	1296.254272	6825.983398	3910.706787	47.279942
339.165985	1296.584961	6811.758789	3907.509033	47.340740
339.532318	1300.775391	6816.390625	3900.451172	47.133015
339.898651	1300.995972	6828.851074	3904.862305	47.104458
340.264954	1300.444580	6846.163574	3905.854980	46.980572
340.631226	1305.627319	6861.712891	3917.323730	47.006050
340.997467	1305.406860	6901.410645	3926.034912	46.830345
341.363678	1306.840454	6942.652344	3940.701660	46.734371
341.729828	1308.274048	6995.914551	3958.455078	46.595440
342.095947	1305.627563	7056.674316	3984.479248	46.580242
342.462067	1306.178833	7114.677734	4014.914551	46.634007
342.828156	1305.076050	7183.377441	4042.703125	46.571735
343.194183	1304.414551	7254.171875	4080.857422	46.664810
343.560211	1309.597290	7313.718750	4114.269531	46.712452
343.926178	1311.582275	7371.282227	4135.332031	46.598835
344.292114	1310.259155	7404.143066	4159.922852	46.762684
344.658020	1307.502197	7440.643066	4174.589844	46.747463
345.023926	1307.943237	7478.025391	4186.167969	46.648075
345.389771	1309.817871	7515.187500	4205.135254	46.658257
345.755585	1307.061157	7535.036621	4220.242676	46.775738
346.121368	1309.376953	7556.099121	4231.379883	46.776581
346.487122	1309.707642	7582.233398	4244.170898	46.782803
346.852844	1309.597412	7608.037109	4256.411621	46.786419
347.218536	1308.163818	7628.216309	4271.408691	46.886395
347.584167	1309.487061	7650.822266	4286.294922	46.942921
347.949768	1309.487061	7669.127930	4299.527344	47.015869
348.315369	1310.259033	7693.718750	4305.041504	46.914722
348.680939	1312.684937	7708.384766	4320.700195	47.031837
349.046448	1312.464478	7717.426270	4327.978027	47.080898
349.411957	1310.810303	7721.727051	4333.933105	47.155857
349.777435	1313.677490	7716.654785	4331.286621	47.128216
350.142792	1315.772705	7705.848145	4328.860352	47.152615
350.508209	1317.757568	7707.170898	4332.830078	47.188568
350.873566	1320.734985	7710.369629	4333.932617	47.157589
351.238892	1324.153320	7723.822754	4345.290527	47.207706
351.604187	1317.647217	7751.722656	4367.566406	47.402603
351.969482	1319.521973	7817.224609	4392.377441	47.291412
352.334717	1317.647339	7876.330566	4428.105957	47.425045
352.699890	1318.308838	7959.255371	4458.100586	47.279282
353.065063	1317.647217	8043.062500	4495.924316	47.257710
353.430237	1317.095825	8157.305176	4544.995605	47.190075
353.795319	1313.456787	8287.425781	4606.306641	47.216297
354.160370	1313.897827	8413.466797	4669.603516	47.266331
354.525421	1315.441650	8548.000977	4738.964355	47.334869
354.890442	1315.993164	8704.146484	4809.539551	47.285786
355.255402	1310.589600	8870.106445	4888.163574	47.325432
355.620331	1311.912964	9055.035156	4977.594727	47.341133
355.985260	1311.913086	9232.242188	5065.260742	47.388783
356.350098	1310.699951	9388.499023	5129.550293	47.275879
356.714935	1313.015869	9533.837891	5203.322754	47.322601
357.079742	1313.456909	9660.432617	5277.536133	47.491203
357.444519	1311.361694	9805.770508	5350.867676	47.554878
357.809296	1311.030762	9967.540039	5423.096191	47.502579
358.173981	1309.266479	10156.877930	5504.697754	47.418800
358.538605	1307.171265	10367.388672	5598.540039	47.364960
358.903259	1303.091187	10606.127930	5708.702148	47.356693
359.267914	1305.958008	10871.113281	5830.333008	47.300591
359.632477	1302.208740	11147.125000	5957.808105	47.289379
359.997009	1303.091064	11412.661133	6084.952148	47.300343
360.361542	1299.893188	11615.783203	6182.323242	47.329220
360.726013	1303.201416	11769.945313	6257.750000	47.336102
361.090485	1304.304321	11863.676758	6311.672852	47.421085
361.454895	1310.259033	11911.866211	6340.012695	47.443314
361.819244	1311.251343	11933.588867	6354.788574	47.480480
362.183594	1308.935791	11933.038086	6353.354980	47.480896
362.547913	1305.958374	11891.907227	6328.653809	47.446812
362.912201	1310.148682	11832.580078	6297.557129	47.397869
363.276489	1311.692383	11753.514648	6254.771484	47.339237
363.640686	1309.045898	11666.289063	6212.316406	47.341465
364.004883	1308.053467	11603.984375	6179.564941	47.314922
364.369049	1307.502075	11540.247070	6145.491211	47.279484
364.733154	1305.627319	11501.651367	6110.975586	47.129627
365.097198	1305.296631	11440.780273	6074.805664	47.057537
365.461273	1304.855469	11349.916992	6032.130859	47.060692
365.825287	1303.863037	11219.022461	5979.310059	47.154537
366.189270	1305.517212	11049.423828	5900.134277	47.153751
366.553223	1306.509644	10853.798828	5803.756348	47.104958
366.917114	1304.083740	10603.810547	5687.749512	47.137581
367.281006	1309.156250	10322.946289	5556.745605	47.123234
367.644867	1308.715088	10066.894531	5434.673828	47.109779
368.008698	1311.251465	9856.163086	5337.854492	47.122814
368.372498	1305.958374	9704.648438	5260.222656	47.081913
368.736237	1305.075928	9600.442383	5205.086914	47.014332
369.099976	1302.429565	9538.358398	5169.799316	46.957298
369.463654	1301.988525	9494.360352	5141.127930	46.862366
369.827332	1302.208862	9463.153320	5124.035645	46.830692
370.190948	1304.193848	9440.435547	5126.352051	46.976952
370.554535	1302.650146	9416.837891	5111.795898	46.944267
370.918091	1301.106445	9393.791016	5105.951172	47.015854
371.281647	1303.091309	9380.999023	5100.989258	47.015862
371.645111	1305.848267	9366.443359	5101.761230	47.092216
372.008575	1305.186523	9363.686523	5101.871094	47.114037
372.371979	1305.406982	9347.367188	5103.084961	47.223289
372.735382	1308.604858	9362.143555	5115.986328	47.275883
373.098724	1308.384155	9392.909180	5129.108887	47.259731
373.462067	1307.501953	9422.242188	5152.486816	47.382721
373.825348	1305.847900	9491.492188	5189.869141	47.449181
374.188599	1304.855347	9567.139648	5221.517090	47.404102
374.551819	1305.517090	9684.690430	5278.858887	47.419254
374.915009	1303.091187	9826.390625	5336.972656	47.327694
375.278168	1303.532227	9977.463867	5406.444336	47.301643
375.641266	1299.672729	10109.459961	5474.262207	47.385815
376.004395	1302.319214	10216.204102	5519.805176	47.313667
376.367462	1305.296631	10289.535156	5553.658691	47.286839
376.730469	1302.980957	10335.959961	5575.933594	47.303917
377.093475	1300.995972	10366.173828	5596.665039	47.386482
377.456421	1299.672852	10399.367188	5608.022949	47.346096
377.819336	1303.201538	10434.763672	5616.403809	47.233997
378.182281	1304.304199	10477.661133	5638.348145	47.245995
378.545135	1306.619873	10523.974609	5659.630371	47.226250
378.907928	1304.965820	10570.621094	5681.685059	47.235939
379.270752	1303.752808	10610.319336	5695.358398	47.188248
379.633484	1304.304077	10644.283203	5703.959961	47.105625
379.996246	1308.604858	10675.931641	5717.413086	47.065807
380.358948	1305.737671	10694.016602	5717.854004	46.996006
380.721558	1306.509521	10717.394531	5727.888672	46.981544
381.084198	1307.281494	10758.856445	5735.387695	46.850460
381.446747	1309.156006	10778.814453	5737.152344	46.759830
381.809326	1310.589722	10797.670898	5752.920898	46.825058
382.171875	1312.574707	10791.716797	5746.966309	46.780514
382.534363	1312.354126	10755.877930	5744.430176	46.932442
382.896790	1311.361572	10704.710938	5718.295410	46.915466
383.259247	1315.441772	10669.204102	5703.519043	46.912426
383.621613	1316.544556	10660.161133	5712.341309	47.045990
383.983948	1316.765015	10687.950195	5719.839844	46.985249
384.346283	1317.647217	10738.124023	5741.783691	46.962982
384.708588	1315.772705	10823.144531	5766.043457	46.808628
385.070831	1320.073242	10899.012695	5812.137695	46.895218
385.433075	1315.662354	10992.963867	5859.886230	46.957550
385.795258	1316.765015	11075.448242	5907.744141	47.045063
386.157440	1312.133667	11151.536133	5946.891113	47.104053
386.519531	1312.795288	11244.496094	5985.266113	47.046024
386.881622	1310.810303	11316.504883	6031.360352	47.178635
387.243683	1310.700073	11391.710938	6071.168457	47.222134
387.605713	1307.391724	11473.091797	6101.493164	47.159580
387.967682	1309.817749	11555.907227	6146.815430	47.208229
388.329651	1307.832886	11652.283203	6194.894043	47.243313
388.691559	1308.053345	11748.441406	6251.904785	47.353142
389.053467	1303.752686	11868.749023	6312.224121	47.406281
389.415314	1301.326782	11987.513672	6368.572754	47.418655
389.777130	1303.752808	12107.820313	6419.298340	47.348328
390.138885	1299.782959	12230.442383	6465.282227	47.256977
390.500641	1300.665039	12323.181641	6508.067871	47.243320
390.862366	1296.584961	12410.408203	6542.692871	47.203449
391.224060	1296.364502	12484.620117	6574.010254	47.171299
391.585693	1297.246704	12571.514648	6612.165039	47.142029
391.947296	1298.569946	12659.623047	6666.528809	47.248783
392.308868	1304.524658	12724.023438	6707.881836	47.316940
392.670441	1304.304077	12789.525391	6730.927734	47.248749
393.031952	1307.171265	12819.077148	6743.719727	47.225441
393.393433	1306.399414	12846.205078	6750.446289	47.176243
393.754883	1308.494507	12861.644531	6756.291016	47.154205
394.116302	1307.502075	12850.395508	6759.268066	47.230499
394.477692	1311.141113	12853.373047	6756.181641	47.174934
394.839020	1310.589722	12852.491211	6755.409180	47.174370
395.200348	1310.589722	12851.718750	6754.416504	47.168926
395.561646	1308.825317	12834.958008	6742.066406	47.138458
395.922882	1312.574585	12799.230469	6725.194824	47.120937
396.284088	1313.787476	12739.682617	6686.268555	47.020218
396.645264	1316.103271	12662.161133	6656.384766	47.067284
397.006409	1316.985474	12567.545898	6610.510254	47.051208
397.367523	1312.905396	12464.992188	6568.056641	47.122581
397.728577	1317.426514	12368.834961	6524.498535	47.116821
398.089600	1319.080688	12297.267578	6490.975586	47.110649
398.450592	1319.631958	12241.248047	6454.916504	47.019459
398.811584	1319.631958	12182.804688	6419.408691	46.945557
399.172546	1317.536865	12098.225586	6390.848145	47.059254
399.533447	1316.323853	12017.835938	6335.270020	46.899414
399.894318	1310.479492	11962.148438	6299.872559	46.841419
400.255127	1308.935791	11911.533203	6277.157227	46.858532
400.615936	1307.502197	11882.752930	6267.342285	46.900444
400.976685	1307.171387	11886.833008	6269.217285	46.901741
401.337433	1305.517212	11916.826172	6286.309570	46.938534
401.698151	1304.745483	11971.852539	6317.737305	46.994854
402.058807	1301.657715	12056.542969	6352.032227	46.958889
402.419434	1299.672729	12151.487305	6403.971191	47.036358
402.780060	1297.467285	12260.105469	6458.114746	47.074867
403.140594	1296.364624	12359.020508	6513.250000	47.157619
403.501129	1292.394775	12453.856445	6560.447266	47.198589
403.861633	1291.181763	12540.641602	6617.899414	47.350876
404.222076	1289.196777	12626.102539	6653.627441	47.318295
404.582550	1287.983765	12698.000000	6686.157715	47.310833
404.942932	1289.307007	12768.574219	6719.570801	47.304966
405.303284	1293.607666	12843.891602	6753.313965	47.269020
405.663605	1292.174316	12899.579102	6782.094727	47.296711
406.023895	1293.056396	12936.077148	6814.514648	47.422901
406.384125	1290.409912	12989.669922	6846.935059	47.494675
406.744354	1290.850952	13056.826172	6870.202148	47.419365
407.104553	1291.291992	13123.429688	6920.487305	47.575470
407.464691	1296.364624	13183.198242	6960.185059	47.647846
407.824829	1296.916016	13253.110352	6992.825684	47.639820
408.184906	1296.805664	13333.279297	7028.113281	47.616169
408.544922	1298.129028	13397.016602	7057.226074	47.600220
408.904938	1299.562500	13444.985352	7075.972656	47.560387
409.264923	1300.224121	13466.709961	7073.214355	47.449940
409.624847	1298.239258	13452.485352	7066.268066	47.456902
409.984802	1301.437256	13428.113281	7046.417969	47.374733
410.344666	1303.091187	13393.708008	7033.295410	47.393810
410.704529	1305.076050	13355.223633	7007.160645	47.319626
411.064331	1307.612305	13323.023438	6992.164551	47.310509
411.424133	1306.399414	13317.508789	6971.322754	47.164032
411.783875	1306.509644	13312.107422	6973.308105	47.201302
412.143555	1310.369263	13321.479492	6984.665039	47.242058
412.503235	1308.274048	13338.792969	6999.000977	47.302425
412.862885	1304.635010	13348.716797	7013.005371	47.395641
413.222473	1305.406860	13404.625000	7032.193359	47.331875
413.582062	1303.642578	13483.800781	7061.635254	47.273544
413.941559	1302.870605	13553.383789	7097.143555	47.298203
414.301086	1304.855591	13638.513672	7136.621094	47.283340
414.660522	1306.399414	13709.198242	7163.197754	47.221584
415.019958	1303.863037	13795.209961	7200.467773	47.205513
415.379364	1302.429688	13906.364258	7250.532227	47.192425
415.738708	1300.555054	14027.223633	7309.417969	47.214733
416.098053	1300.996216	14169.366211	7371.502441	47.173855
416.457336	1300.996094	14353.409180	7457.955566	47.171043
416.816559	1302.870728	14553.443359	7569.992676	47.296993
417.175812	1306.840454	14794.830078	7692.174316	47.340889
417.535004	1302.319336	15084.958008	7830.346191	47.364128
417.894135	1306.289063	15413.351563	7988.697754	47.369244
418.253265	1303.091187	15806.914063	8179.249023	47.409275
418.612335	1300.775513	16211.945313	8376.416016	47.451950
418.971405	1302.870728	16630.541016	8566.195313	47.387012
419.330414	1304.304077	17066.005859	8771.523438	47.375717
419.689423	1303.642334	17500.701172	8967.037109	47.313496
420.048370	1306.178711	17901.873047	9167.622070	47.370377
420.407257	1306.619751	18312.748047	9357.179688	47.339169
420.766144	1307.281372	18696.716797	9539.791992	47.342026
421.125000	1310.479370	19089.509766	9713.470703	47.263493
421.483795	1311.692383	19479.652344	9900.162109	47.272614
421.842560	1309.817749	19892.181641	10114.863281	47.383888
422.201324	1305.627563	20295.669922	10305.524414	47.392712
422.560028	1306.730225	20666.406250	10488.136719	47.425415
422.918671	1310.259033	21005.935547	10654.977539	47.445534
423.277283	1307.281494	21295.291016	10794.142578	47.462761
423.635925	1306.950806	21519.697266	10906.951172	47.494785
423.994476	1306.178833	21684.664063	10978.077148	47.461323
424.353027	1301.437134	21815.447266	11018.326172	47.367085
424.711487	1299.562500	21918.664063	11058.245117	47.328362
425.069946	1303.422119	21966.853516	11082.835938	47.327152
425.428375	1300.003662	21932.335938	11067.397461	47.340229
425.786743	1302.980957	21839.044922	11022.958008	47.331253
426.145081	1302.650146	21688.634766	10947.642578	47.311878
426.503418	1303.201538	21511.423828	10866.702148	47.324799
426.861725	1303.642578	21295.402344	10763.927734	47.320923
427.219971	1305.958252	21063.716797	10654.316406	47.314877
427.578186	1305.737671	20870.742188	10552.976563	47.264183
427.936371	1306.509521	20683.941406	10461.670898	47.246513
428.294495	1304.524658	20465.931641	10367.057617	47.295761
428.652618	1305.406982	20213.738281	10266.046875	47.389900
429.010712	1308.604858	19949.083984	10142.982422	47.393517
429.368744	1307.502197	19655.095703	9991.798828	47.332077
429.726746	1309.266479	19377.318359	9857.156250	47.309414
430.084717	1308.163818	19099.431641	9725.492188	47.311569
430.442688	1307.060913	18835.882813	9589.194336	47.248661
430.800568	1309.376709	18608.390625	9474.510742	47.199997
431.158417	1306.840454	18434.820313	9389.380859	47.189102
431.516235	1306.068604	18281.431641	9320.129883	47.209957
431.874023	1311.692505	18144.582031	9271.279297	47.285923
432.231812	1313.567261	18015.671875	9217.135742	47.320789
432.589508	1312.574707	17917.308594	9166.630859	47.300102
432.947205	1313.015869	17823.136719	9119.212891	47.281284
433.304840	1313.015747	17743.410156	9076.317383	47.249638
433.662476	1316.213623	17696.322266	9050.182617	47.215614
434.020050	1314.890381	17657.066406	9044.557617	47.298885
434.377594	1312.795166	17623.541016	9028.127930	47.302147
434.735138	1308.825195	17599.613281	9021.511719	47.343853
435.092621	1308.935669	17586.931641	9005.411133	47.281467
435.450043	1307.612305	17582.742188	9002.103516	47.277603
435.807465	1309.707520	17606.451172	9005.190430	47.220985
436.164856	1308.053345	17642.402344	9026.914063	47.255394
436.522156	1303.973267	17711.433594	9050.954102	47.216209
436.879486	1305.737671	17791.822266	9086.902344	47.198380
437.236755	1306.840454	17887.759766	9144.354492	47.268272
437.593994	1306.730225	17994.613281	9179.201172	47.174770
437.951172	1304.635010	18134.107422	9249.002930	47.205093
438.308380	1308.053467	18255.406250	9306.455078	47.195576
438.665497	1306.840454	18378.800781	9379.566406	47.286461
439.022583	1309.266602	18541.562500	9446.281250	47.219559
439.379608	1306.399414	18692.748047	9509.797852	47.182987
439.736633	1303.973389	18803.460938	9559.419922	47.175358
440.093628	1303.311646	18901.603516	9609.815430	47.200626
440.450562	1302.098633	18996.988281	9647.307617	47.161686
440.807495	1300.003540	19074.402344	9691.196289	47.209431
441.164368	1297.687866	19164.937500	9738.723633	47.243061
441.521210	1294.820679	19226.908203	9760.779297	47.211227
441.878021	1295.813232	19294.947266	9784.486328	47.161560
442.234833	1294.820801	19409.521484	9823.523438	47.081665
442.591522	1293.056274	19506.119141	9865.095703	47.065334
442.948242	1294.379517	19605.806641	9915.048828	47.078083
443.304901	1289.748169	19723.906250	9973.493164	47.106815
443.661530	1290.961060	19876.414063	10043.626953	47.094177
444.018127	1295.372070	20038.294922	10122.582031	47.096233
444.374664	1293.717773	20193.007813	10201.647461	47.133675
444.731201	1294.710327	20324.121094	10237.376953	46.993927
445.087738	1294.159058	20459.091797	10305.083984	47.017773
445.444183	1294.048950	20529.777344	10338.827148	47.020721
445.800598	1288.535278	20607.960938	10373.011719	47.022499
446.156982	1294.710449	20632.111328	10385.032227	47.009018
446.513336	1294.379639	20623.511719	10380.841797	47.009155
446.869598	1296.143921	20639.279297	10384.039063	46.982536
447.225891	1296.254272	20655.710938	10383.929688	46.941792
447.582153	1298.569946	20644.904297	10373.453125	46.907505
447.938354	1298.900757	20658.910156	10388.782227	46.951847
448.294495	1300.113892	20673.464844	10395.838867	46.949669
448.650665	1300.775269	20647.441406	10384.040039	46.950027
449.006775	1304.304199	20650.308594	10383.489258	46.930546
449.362823	1304.634888	20653.947266	10397.493164	46.993187
449.718842	1306.068604	20646.886719	10405.984375	47.050316
450.074860	1303.201416	20633.435547	10406.866211	47.095470
450.430817	1299.121338	20615.460938	10398.706055	47.108227
450.786713	1303.091187	20522.720703	10361.323242	47.130112
451.142578	1302.429443	20414.103516	10309.715820	47.129761
451.498444	1299.672852	20259.611328	10233.296875	47.118427
451.854248	1298.790649	20091.447266	10141.108398	47.051983
452.210022	1296.364624	19887.664063	10070.864258	47.196812
452.565765	1297.687866	19641.093750	9952.541992	47.182373
452.921478	1298.790527	19413.382813	9848.444336	47.197609
453.277191	1300.665039	19194.601563	9743.133789	47.180611
453.632813	1293.717896	19016.619141	9647.196289	47.133812
453.988434	1291.953491	18836.214844	9566.917969	47.166218
454.343964	1291.512451	18654.484375	9485.977539	47.195057
454.699524	1291.512451	18502.417969	9418.050781	47.217373
455.054993	1289.858398	18362.921875	9361.040039	47.274364
455.410400	1292.946045	18256.728516	9310.314453	47.261677
455.765839	1292.505005	18209.533203	9280.760742	47.220211
456.121216	1291.843384	18214.494141	9279.769531	47.202572
456.476593	1290.850952	18258.162109	9311.969727	47.273956
456.831909	1292.505005	18381.447266	9354.533203	47.176872
457.187195	1290.299438	18541.011719	9424.666992	47.153805
457.542450	1292.725586	18748.433594	9519.721680	47.130695
457.897644	1294.049072	18936.558594	9621.172852	47.199203
458.252808	1294.710571	19188.201172	9731.554688	47.150352
458.607971	1291.733398	19381.619141	9814.589844	47.113930
458.963013	1290.079224	19505.677734	9875.461914	47.132042
459.318085	1288.755859	19596.982422	9931.480469	47.206783
459.673096	1285.116821	19666.013672	9966.877930	47.232521
460.028076	1286.440063	19745.630859	10012.530273	47.272331
460.383057	1284.786133	19806.941406	10040.208984	47.269997
460.737976	1287.983887	19834.839844	10045.613281	47.218941
461.092865	1292.725586	19855.791016	10047.267578	47.161076
461.447723	1296.916016	19856.453125	10055.205078	47.190235
461.802551	1298.239258	19856.453125	10049.250977	47.154385
462.157288	1297.467407	19858.546875	10053.000977	47.171463
462.512054	1300.224121	19875.419922	10049.470703	47.101772
462.866760	1298.349487	19855.460938	10031.938477	47.063301
463.221405	1300.224121	19807.162109	10014.404297	47.086018
463.576019	1303.091187	19712.216797	9977.242188	47.118759
463.930603	1302.539917	19614.736328	9919.019531	47.053226
464.285156	1299.121338	19475.904297	9857.928711	47.086483
464.639709	1298.128906	19264.953125	9761.330078	47.104603
464.994171	1297.908203	19023.126953	9641.132813	47.069798
465.348633	1296.584961	18747.886719	9497.888672	46.995373
465.703033	1295.923462	18464.816406	9362.473633	46.983521
466.057434	1298.790649	18214.716797	9247.679688	46.990566
466.411774	1299.562622	18037.949219	9154.168945	46.925709
466.766083	1301.106445	17885.222656	9067.495117	46.830280
467.120331	1305.737793	17779.470703	8997.582031	46.691570
467.474548	1301.106445	17689.046875	8943.879883	46.636566
467.828735	1303.752930	17619.908203	8906.166992	46.594395
468.182922	1304.083740	17569.181641	8893.263672	46.659294
468.537048	1303.752808	17523.308594	8876.943359	46.691727
468.891144	1301.878296	17492.320313	8865.585938	46.717113
469.245178	1301.878174	17462.218750	8856.653320	46.748863
469.599213	1302.539917	17443.248047	8852.463867	46.775665
469.953186	1298.680298	17429.464844	8848.934570	46.806492
470.307129	1296.805664	17448.871094	8856.874023	46.805584
470.661041	1296.364624	17470.375000	8855.881836	46.738667
471.014923	1294.159180	17540.398438	8874.076172	46.656441
471.368713	1291.402344	17554.513672	8871.871094	46.611431
471.722504	1291.733154	17527.056641	8870.107422	46.678307
472.076294	1294.159180	17506.875000	8860.403320	46.668579
472.429993	1294.820679	17450.636719	8837.908203	46.689610
472.783722	1298.680298	17445.673828	8829.857422	46.641361
473.137329	1298.900757	17468.169922	8823.791992	46.538227
473.490967	1297.136353	17501.912109	8838.017578	46.534931
473.844543	1299.893188	17586.824219	8879.149414	46.535816
474.198090	1304.304077	17671.072266	8917.745117	46.517681
474.551605	1302.319214	17800.201172	8980.158203	46.538330
474.905060	1308.384155	17940.027344	9054.260742	46.573132
475.258484	1308.935547	18086.910156	9119.101563	46.550114
475.611877	1306.178711	18251.660156	9192.763672	46.540936
475.965240	1308.273926	18447.281250	9278.115234	46.501183
476.318573	1309.266235	18634.302734	9368.317383	46.516792
476.671844	1309.597168	18851.650391	9473.408203	46.538517
477.025116	1311.912964	19080.025391	9566.587891	46.457802
477.378326	1311.582275	19312.589844	9670.575195	46.436253
477.731506	1315.882690	19547.250000	9789.449219	46.477955
478.084656	1316.323975	19827.232422	9914.166992	46.447437
478.437744	1317.867554	20118.792969	10051.898438	46.455326
478.790833	1320.844971	20460.417969	10227.452148	46.535038
479.143890	1321.506836	20876.585938	10411.386719	46.483475
479.496826	1319.191040	21361.125000	10633.696289	46.475082
479.849823	1318.308838	22011.734375	10930.991211	46.452835
480.202728	1315.441650	22825.765625	11275.041992	46.301491
480.555603	1315.110840	23823.623047	11746.567383	46.344498
480.908478	1315.441772	25161.562500	12380.194336	46.400642
481.261292	1316.985596	26807.597656	13180.221680	46.539631
481.614075	1312.574707	28644.851563	14158.338867	46.998512
481.966797	1312.464355	30482.433594	15160.056641	47.472084
482.319489	1309.045898	32214.595703	16061.863281	47.735172
482.672150	1305.296631	33764.917969	16843.587891	47.869602
483.024780	1306.730103	35107.265625	17469.712891	47.818718
483.377350	1302.870605	36224.988281	18000.896484	47.815044
483.729919	1298.018677	37244.351563	18465.035156	47.757351
484.082428	1299.011108	38192.691406	18907.779297	47.728413
484.434937	1295.702881	39178.636719	19376.769531	47.728790
484.787384	1295.151489	40234.167969	19885.566406	47.742382
485.139771	1292.725586	41388.390625	20426.232422	47.719643
485.492157	1292.835815	42569.632813	20992.921875	47.726780
485.844482	1293.387207	43648.093750	21501.830078	47.712391
486.196777	1294.710449	44636.695313	21969.166016	47.700760
486.549072	1296.033813	45404.960938	22335.050781	47.697868
486.901276	1296.695313	45975.839844	22601.691406	47.684433
487.253448	1298.239258	46288.355469	22750.558594	47.682293
487.605591	1302.208984	46303.132813	22786.509766	47.741913
487.957703	1299.672607	46083.031250	22689.687500	47.763313
488.309784	1299.562378	45554.933594	22434.408203	47.756565
488.661835	1296.033691	44797.800781	22056.171875	47.722519
489.013855	1298.349365	44004.054688	21558.181641	47.440575
489.365814	1299.231567	43266.445313	21066.037109	47.100586
489.717743	1303.532349	42634.578125	20672.802734	46.863728
490.069611	1305.186401	42050.355469	20355.105469	46.753815
490.421509	1304.965820	41502.742188	20112.837891	46.788338
490.773315	1302.981079	41014.894531	19870.019531	46.754330
491.125092	1306.619995	40491.542969	19626.316406	46.751904
491.476807	1304.524780	39882.945313	19324.277344	46.709408
491.828522	1307.612305	39140.375000	18983.425781	46.720917
492.180176	1309.707520	38236.800781	18567.035156	46.733513
492.531830	1309.156128	37205.195313	18074.007813	46.703903
492.883423	1306.178711	36045.132813	17526.613281	46.692352
493.234985	1304.745239	34956.851563	17015.169922	46.684818
493.586487	1304.965698	33935.281250	16519.164063	46.625961
493.937988	1305.296509	33071.078125	16101.230469	46.578213
494.289429	1307.391846	32372.283203	15777.361328	46.579819
494.640869	1306.950562	31790.261719	15508.738281	46.588734
494.992218	1303.752808	31337.705078	15296.794922	46.590744
495.343567	1308.053345	30892.642578	15087.386719	46.576050
495.694855	1309.266479	30385.390625	14843.794922	46.548595
496.046112	1310.589722	29761.578125	14538.889648	46.495045
496.397339	1310.479492	28948.871094	14168.372070	46.521858
496.748535	1314.008179	28032.728516	13730.699219	46.471878
497.099670	1311.030884	27087.691406	13287.295898	46.461662
497.450806	1309.817871	26246.529297	12885.130859	46.418762
497.801880	1306.840576	25569.789063	12543.948242	46.313858
498.152924	1311.582275	24976.521484	12271.133789	46.311344
498.503937	1313.897827	24514.037109	12055.440430	46.299477
498.854889	1314.449219	24176.052734	11901.500000	46.309311
499.205841	1312.243774	23892.431641	11755.500000	46.249641
499.556702	1311.140991	23686.552734	11639.823242	46.160858
499.907562	1307.943115	23485.634766	11547.083984	46.168648
500.258362	1310.148560	23315.595703	11464.491211	46.144676
500.609161	1309.707520	23158.457031	11382.006836	46.100113
500.959900	1308.494507	22990.400391	11301.728516	46.090202
501.310608	1307.171265	22819.037109	11224.868164	46.103382
501.661255	1307.171265	22611.285156	11131.687500	46.115585
502.011902	1309.266602	22391.291016	11031.670898	46.117035
502.362488	1311.913086	22170.857422	10929.448242	46.107487
502.713043	1309.487061	21960.457031	10840.568359	46.153187
503.063568	1309.817871	21776.964844	10749.152344	46.119442
503.414063	1310.369263	21571.416016	10667.109375	46.180931
503.764496	1309.487061	21409.425781	10585.067383	46.147305
504.114899	1307.722656	21250.632813	10525.520508	46.220928
504.465271	1306.950684	21128.449219	10457.812500	46.166348
504.815613	1310.699951	21029.423828	10394.957031	46.069191
505.165894	1314.559570	20931.613281	10352.170898	46.070175
505.516174	1314.890381	20892.464844	10328.461914	46.040287
505.866394	1313.125977	20881.437500	10321.625000	46.036156
506.216583	1311.802856	20873.714844	10325.484375	46.077713
506.566711	1311.802734	20907.458984	10335.518555	46.049572
506.916840	1310.810303	20949.033203	10345.774414	46.007034
507.266907	1311.251343	21002.847656	10364.741211	45.976418
507.616882	1312.464355	21083.457031	10396.940430	45.948513
507.966858	1310.589966	21133.298828	10416.348633	45.935997
508.316803	1311.251587	21188.214844	10441.821289	45.935436
508.666748	1311.030884	21251.291016	10465.198242	45.907963
509.016632	1309.707642	21313.376953	10489.349609	45.889786
509.366486	1309.046021	21402.917969	10526.841797	45.873669
509.716309	1306.840454	21490.474609	10569.076172	45.889828
510.066040	1308.715088	21588.066406	10607.672852	45.854317
510.415771	1308.935669	21689.849609	10661.706055	45.889847
510.765503	1303.863037	21797.253906	10703.167969	45.865055
511.115173	1302.870483	21897.271484	10750.254883	45.873562
511.464752	1302.650024	21996.625000	10794.584961	45.868107
511.814270	1304.965820	22078.666016	10848.838867	45.942097
512.163818	1302.980835	22163.134766	10893.719727	45.976357
512.513306	1300.444580	22225.990234	10927.130859	46.004471
512.862793	1297.797974	22280.796875	10943.341797	45.968380
513.212219	1294.931030	22320.494141	10956.575195	45.951897
513.561646	1295.482178	22372.982422	10962.860352	45.865868
513.911011	1294.710449	22402.203125	10977.305664	45.872791
514.260315	1298.128906	22437.380859	11006.085938	45.923843
514.609558	1299.893188	22506.414063	11040.049805	45.930004
514.958801	1300.665283	22600.585938	11076.549805	45.896347
515.308044	1304.193970	22745.705078	11152.748047	45.932178
515.657227	1303.311890	22949.488281	11235.673828	45.885067
516.006348	1307.171387	23197.712891	11334.256836	45.805565
516.355408	1308.935669	23468.322266	11442.433594	45.730049
516.704529	1306.950684	23702.210938	11547.193359	45.725044
517.053467	1310.810181	23927.384766	11647.651367	45.704716
517.402466	1309.817627	24100.404297	11708.854492	45.628651
517.751404	1310.589600	24227.660156	11766.416016	45.624619
518.100281	1315.882813	24354.253906	11811.627930	45.557671
518.449219	1316.764893	24445.224609	11848.349609	45.535179
518.798035	1314.228638	24541.933594	11879.555664	45.485886
519.146851	1311.471924	24637.761719	11903.485352	45.408054
519.495544	1311.582275	24703.267578	11942.081055	45.445629
519.844299	1311.582031	24792.478516	11978.801758	45.429356
520.192932	1310.589600	24892.824219	12026.329102	45.439880
520.541626	1311.912964	24987.878906	12070.769531	45.442101
520.890198	1313.236084	25089.660156	12128.882813	45.488953
521.238770	1315.993042	25211.404297	12182.915039	45.477024
521.587280	1313.897827	25350.234375	12234.523438	45.433823
521.935791	1315.000488	25468.556641	12280.837891	45.400509
522.284180	1312.905273	25587.652344	12326.710938	45.371456
522.632629	1310.810181	25735.308594	12382.508789	45.330299
522.981018	1313.346436	25881.085938	12452.751953	45.341595
523.329346	1309.376709	26049.583984	12536.449219	45.379864
523.677551	1312.795288	26239.253906	12634.704102	45.421249
524.025818	1310.810303	26502.146484	12734.829102	45.348999
524.374023	1305.848267	26813.333984	12872.340820	45.345482
524.722229	1304.304443	27208.441406	13060.908203	45.385044
525.070374	1302.760376	27733.115234	13291.707031	45.360519
525.418457	1301.878174	28432.574219	13616.238281	45.389034
525.766541	1303.532227	29419.845703	14062.400391	45.378883
526.114563	1305.406860	30673.535156	14652.248047	45.446686
526.462585	1304.414429	32059.880859	15352.591797	45.677010
526.810547	1302.319214	33429.792969	16022.607422	45.818378
527.158447	1303.311523	34649.191406	16608.484375	45.898243
527.506348	1306.509521	35670.535156	17085.964844	45.918526
527.854065	1305.406860	36507.835938	17471.697266	45.923790
528.201904	1305.296631	37179.289063	17791.269531	45.955223
528.549622	1304.965820	37700.105469	18037.507813	45.974663
528.897339	1304.965820	38087.820313	18213.722656	45.969128
529.245056	1305.848022	38392.945313	18345.169922	45.944069
529.592712	1304.965942	38621.097656	18462.279297	45.978271
529.940369	1302.209106	38808.785156	18547.410156	45.979141
530.287903	1298.239258	39002.093750	18644.671875	46.007053
530.635437	1300.003662	39242.042969	18750.640625	45.992882
530.982910	1296.254272	39534.929688	18873.044922	45.966003
531.330383	1298.349487	39778.742188	18997.208984	45.994484
531.677795	1296.364624	39893.535156	19053.779297	46.007034
532.025208	1296.805664	39896.734375	19059.625000	46.017754
532.372498	1296.144043	39700.453125	18974.824219	46.033062
532.719788	1294.379639	39259.023438	18779.863281	46.057285
533.067078	1295.261841	38522.738281	18434.048828	46.038002
533.414307	1297.577637	37499.183594	17963.294922	46.035851
533.761536	1299.782959	36364.812500	17381.166016	45.861595
534.108643	1298.790649	35301.566406	16838.074219	45.700043
534.455811	1298.349487	34402.292969	16393.673828	45.599773
534.802856	1298.459717	33658.390625	16045.323242	45.571365
535.149902	1300.996094	33076.042969	15753.982422	45.485336
535.496887	1300.665161	32572.203125	15508.184570	45.432751
535.843811	1298.790527	32153.277344	15300.101563	45.378525
536.190796	1300.113892	31807.683594	15132.708008	45.341511
536.537659	1300.885742	31473.228516	14983.619141	45.348595
536.884460	1301.216553	31187.402344	14841.807617	45.307190
537.231323	1303.973267	30885.589844	14708.929688	45.315155
537.578064	1306.950806	30573.738281	14556.642578	45.272106
537.924805	1308.274048	30209.177734	14395.976563	45.284748
538.271423	1307.502197	29892.691406	14249.093750	45.273766
538.618164	1308.935547	29722.433594	14154.810547	45.210468
538.964783	1312.795288	29751.984375	14169.036133	45.206074
539.311279	1312.354126	29938.345703	14258.795898	45.226173
539.657776	1313.787720	30217.447266	14374.141602	45.185810
540.004333	1312.023193	30474.714844	14490.919922	45.190948
540.350769	1311.030762	30722.937500	14611.889648	45.222706
540.697144	1310.920410	30910.619141	14691.505859	45.205143
541.043518	1307.501953	31016.039063	14738.591797	45.209530
541.389893	1307.832764	30991.449219	14727.345703	45.208481
541.736145	1312.243652	30870.919922	14668.568359	45.185799
542.082458	1311.030762	30728.115234	14603.289063	45.185505
542.428711	1313.677490	30558.958984	14537.345703	45.216415
542.774902	1311.030884	30414.613281	14468.095703	45.207714
543.121033	1314.559570	30309.851563	14420.567383	45.200466
543.467102	1315.772705	30228.580078	14374.363281	45.165421
543.813171	1314.449341	30173.115234	14349.662109	45.169147
544.159180	1314.118530	30124.265625	14329.591797	45.176701
544.505127	1316.103394	30064.390625	14278.977539	45.090942
544.851135	1315.882813	29946.505859	14228.363281	45.100243
545.197021	1314.228760	29733.347656	14118.310547	45.054466
545.542908	1312.574585	29327.765625	13939.007813	45.069954
545.888733	1313.125977	28734.279297	13683.064453	45.110935
546.234558	1312.574585	27955.421875	13326.220703	45.091450
546.580322	1314.449219	27086.472656	12908.068359	44.985291
546.926025	1314.449219	26190.398438	12496.419922	44.950932
547.271667	1315.331421	25366.664063	12099.991211	44.840179
547.617371	1312.464233	24569.062500	11742.487305	44.847588
547.962952	1309.376709	23836.634766	11406.926758	44.823696
548.308533	1316.875244	23176.984375	11115.698242	44.825134
548.654053	1318.749878	22597.058594	10846.523438	44.776932
548.999573	1316.985596	22105.242188	10620.022461	44.751408
549.344971	1317.426514	21676.394531	10423.516602	44.727657
549.690430	1313.456787	21303.451172	10258.770508	44.748955
550.035767	1313.897827	20995.458984	10117.509766	44.730255
550.381104	1314.338867	20720.439453	9983.086914	44.670219
550.726440	1308.715088	20440.898438	9867.632813	44.735710
551.071655	1308.053345	20193.007813	9746.333008	44.682549
551.416931	1305.737671	19905.525391	9609.373047	44.643715
551.762085	1305.958130	19601.064453	9481.237305	44.685608
552.107178	1303.752686	19293.402344	9327.517578	44.602116
552.452332	1302.539795	18985.742188	9193.316406	44.623005
552.797424	1304.304077	18713.041016	9066.833008	44.589848
553.142395	1299.011108	18451.914063	8946.415039	44.583733
553.487366	1300.113770	18255.408203	8857.976563	44.575237
553.832336	1301.106323	18065.296875	8777.036133	44.594635
554.177185	1299.782959	17916.652344	8720.245117	44.656197
554.522095	1301.326782	17807.810547	8681.429688	44.710327
554.866943	1304.745361	17704.042969	8629.380859	44.664330
555.211731	1306.068604	17624.757813	8590.895508	44.641006
555.556396	1300.885742	17547.566406	8549.213867	44.614208
555.901123	1302.760376	17476.771484	8519.330078	44.618309
556.245789	1303.201538	17389.656250	8490.216797	44.677433
556.590454	1305.406860	17291.294922	8449.857422	44.692238
556.934998	1303.642700	17206.494141	8395.273438	44.593456
557.279541	1307.722656	17093.353516	8340.798828	44.553658
557.624023	1306.620117	16953.750000	8283.898438	44.591427
557.968567	1311.361694	16822.525391	8226.225586	44.579914
558.312988	1313.567017	16687.994141	8173.293945	44.617775
558.657349	1316.213745	16581.359375	8129.847656	44.635235
559.001770	1315.000732	16496.228516	8090.589844	44.631363
559.346069	1317.757568	16420.470703	8053.207520	44.597618
559.690308	1318.970459	16366.767578	8029.938965	44.597683
560.034485	1318.529541	16310.417969	8007.444336	44.616894
560.378723	1321.727173	16279.982422	7987.814941	44.564610
560.722900	1318.970459	16237.306641	7954.183105	44.476898
561.067017	1315.662354	16214.701172	7944.368164	44.490829
561.411072	1315.110962	16186.361328	7914.814941	44.378948
561.755127	1317.206055	16158.242188	7907.977539	44.409107
562.099182	1316.213745	16149.860352	7903.126465	44.405216
562.443115	1316.103394	16154.382813	7903.126465	44.392094
562.787048	1318.198486	16166.845703	7899.598145	44.323223
563.130920	1317.536865	16204.117188	7905.000977	44.251022
563.474792	1314.559570	16275.242188	7931.466309	44.228642
563.818604	1309.817749	16366.658203	7974.031250	44.260368
564.162354	1314.890259	16455.423828	8024.094727	44.312870
564.506042	1312.133545	16567.021484	8057.066406	44.214897
564.849731	1311.582153	16664.722656	8101.396484	44.224270
565.193420	1309.376709	16735.189453	8133.265625	44.236820
565.537048	1304.304077	16789.001953	8161.164551	44.281525
565.880615	1304.965820	16818.666016	8180.130859	44.316734
566.224121	1303.201416	16827.597656	8187.408691	44.344440
566.567627	1303.642578	16828.146484	8199.869141	44.421558
566.911072	1306.509766	16823.736328	8205.051758	44.457314
567.254517	1305.848022	16856.265625	8207.367188	44.381565
567.597839	1307.612305	16881.408203	8214.205078	44.347523
567.941223	1305.847900	16914.271484	8243.537109	44.448368
568.284485	1305.186401	16938.753906	8256.439453	44.463638
568.627808	1306.289063	17000.615234	8286.763672	44.477695
568.970947	1304.855591	17070.197266	8305.179688	44.403252
569.314148	1310.589600	17146.837891	8334.291992	44.352058
569.657288	1314.449341	17232.078125	8361.198242	44.270092
570.000366	1315.772461	17313.900391	8403.543945	44.303757
570.343445	1316.213745	17378.958984	8441.366211	44.358250
570.686462	1319.301392	17399.359375	8456.032227	44.382496
571.029419	1319.521851	17410.937500	8449.636719	44.310051
571.372314	1314.559570	17389.546875	8440.042969	44.326527
571.715210	1314.780029	17336.173828	8427.692383	44.396339
572.058105	1315.441650	17284.566406	8415.121094	44.458790
572.400879	1318.308716	17266.921875	8406.189453	44.441990
572.743713	1316.985474	17250.712891	8382.039063	44.340244
573.086426	1315.882813	17256.779297	8382.590820	44.330681
573.429077	1315.993042	17280.599609	8390.420898	44.313198
573.771790	1313.456787	17288.978516	8382.590820	44.249783
574.114441	1308.825317	17280.158203	8371.895508	44.223423
574.457031	1309.376709	17246.634766	8359.213867	44.234943
574.799561	1306.399414	17192.378906	8333.080078	44.231964
575.142029	1312.684937	17144.080078	8297.681641	44.121166
575.484436	1316.103271	17057.294922	8256.549805	44.090984
575.826904	1311.471802	16940.076172	8215.748047	44.177177
576.169250	1314.890381	16794.847656	8155.099121	44.187519
576.511597	1309.266357	16627.013672	8085.186035	44.235748
576.853943	1303.863037	16422.126953	7993.659180	44.249763
577.196167	1302.980835	16207.315430	7893.090820	44.216061
577.538391	1300.885742	15981.145508	7790.096191	44.203648
577.880554	1295.923462	15774.605469	7683.131836	44.114571
578.222717	1297.798096	15546.340820	7589.069824	44.153790
578.564819	1298.459717	15335.276367	7490.596191	44.113541
578.906860	1297.798096	15149.357422	7399.511230	44.050728
579.248901	1294.489990	14957.482422	7306.662109	44.003334
579.590942	1292.505005	14756.014648	7208.850586	43.943562
579.932861	1296.474854	14573.073242	7137.833984	43.997410
580.274780	1295.813232	14376.127930	7045.645996	43.957912
580.616638	1297.577515	14177.304688	6955.333496	43.927605
580.958496	1300.665161	13971.095703	6873.180664	43.980476
581.300232	1301.988525	13802.267578	6796.099609	43.951908
581.641968	1302.760376	13638.404297	6725.084961	43.956562
581.983704	1300.885620	13495.599609	6666.639648	44.000656
582.325317	1296.915771	13360.736328	6599.704102	43.956127
582.666992	1296.474731	13243.408203	6545.008789	43.932060
583.008606	1298.018555	13132.584961	6484.690430	43.826462
583.350098	1295.482300	13037.419922	6436.831055	43.786201
583.691589	1294.710449	12956.919922	6405.513184	43.823624
584.033081	1295.813232	12896.602539	6375.851074	43.790455
584.374512	1293.276978	12835.179688	6339.460449	43.720554
584.715881	1293.607666	12787.429688	6318.398926	43.717319
585.057190	1291.512451	12741.335938	6294.800781	43.697514
585.398499	1289.086548	12694.800781	6264.145020	43.619003
585.739807	1291.071655	12657.087891	6244.736816	43.583122
586.081055	1291.622803	12628.416992	6242.532227	43.671158
586.422180	1291.622803	12602.281250	6229.850586	43.659950
586.763367	1289.637939	12593.017578	6232.717773	43.730991
587.104431	1289.196777	12593.017578	6222.682617	43.644413
587.445496	1290.189331	12597.098633	6223.785156	43.633461
587.786499	1287.211914	12592.797852	6230.291016	43.722450
588.127502	1283.021484	12621.468750	6238.782227	43.707577
588.468445	1284.234619	12627.754883	6241.648926	43.702606
588.809326	1284.124390	12634.040039	6242.861816	43.689640
589.150208	1287.322266	12639.332031	6244.736816	43.669930
589.491028	1290.740723	12626.099609	6245.177734	43.707806
589.831848	1290.299683	12624.998047	6245.508301	43.717163
590.172546	1291.291992	12613.971680	6246.721191	43.765514
590.513245	1289.307251	12605.810547	6251.022461	43.844952
590.853943	1289.307251	12610.994141	6240.656250	43.733318
591.194458	1290.189331	12623.235352	6249.919434	43.763432
591.535095	1288.645508	12624.227539	6258.630859	43.844112
591.875610	1289.527588	12644.406250	6269.548340	43.857979
592.216125	1291.622803	12648.376953	6284.434570	43.963367
592.556580	1291.071411	12667.343750	6302.850586	44.054668
592.897034	1287.763184	12700.867188	6319.501465	44.087379
593.237366	1287.652954	12718.510742	6328.322754	44.097042
593.577698	1288.535156	12771.110352	6344.863770	44.034798
593.918030	1289.307007	12819.409180	6367.910645	44.046474
594.258301	1292.284302	12873.332031	6401.433594	44.116470
594.598511	1292.063843	12952.838867	6432.310059	44.081512
594.938721	1294.379639	13037.417969	6464.399414	44.026253
595.278809	1299.231567	13118.026367	6499.687500	44.001575
595.618958	1298.790527	13172.391602	6520.749023	43.979565
595.958984	1299.011108	13228.298828	6543.024414	43.959145
596.299011	1302.098633	13252.007813	6556.808105	43.972797
596.638977	1299.011108	13278.141602	6562.653320	43.940102
596.978943	1297.908447	13289.832031	6563.093750	43.906097
597.318848	1300.665161	13285.533203	6556.477051	43.853733
597.658630	1300.113770	13271.526367	6542.693359	43.792492
597.998474	1298.128662	13238.885742	6529.019531	43.807026
598.338257	1297.356934	13184.189453	6507.736816	43.833210
598.677979	1298.680298	13151.439453	6487.005371	43.773144
599.017700	1297.026245	13096.192383	6461.863281	43.772900
599.357361	1300.444580	13052.415039	6440.028809	43.733807
599.696960	1305.737671	13013.156250	6412.902344	43.623318
600.036560	1307.171265	12965.298828	6392.281250	43.618580
600.376038	1303.973389	12926.591797	6370.116699	43.588661
600.715576	1303.422119	12884.029297	6359.420410	43.659180
601.055054	1302.870850	12840.801758	6342.328125	43.677303
601.394409	1301.878174	12806.395508	6326.118164	43.671890
601.733826	1303.752930	12760.414063	6312.002930	43.714745
602.073120	1301.878296	12756.113281	6298.991211	43.626770
602.412415	1297.577515	12743.873047	6294.360352	43.654144
602.751587	1296.915894	12771.220703	6306.820801	43.661945
603.090820	1298.459839	12801.544922	6312.444824	43.588177
603.429993	1293.166748	12848.080078	6322.479004	43.525318
603.769104	1292.063965	12883.807617	6339.130371	43.540180
604.108154	1293.828369	12909.392578	6357.876465	43.597088
604.447205	1296.144165	12946.553711	6370.227051	43.552830
604.786194	1298.349487	12976.877930	6379.049316	43.504623
605.125183	1302.319336	13007.534180	6392.722656	43.488338
605.464111	1300.665039	13028.486328	6401.433594	43.492889
605.802979	1299.562378	13050.870117	6416.321289	43.542038
606.141846	1300.113770	13074.911133	6429.773926	43.564743
606.480652	1297.908325	13114.829102	6439.037109	43.506500
606.819336	1295.702881	13167.648438	6461.643066	43.513851
607.158020	1295.261719	13228.960938	6486.123535	43.497509
607.496765	1300.003296	13292.807617	6518.433594	43.513008
607.835388	1301.216431	13331.182617	6530.452148	43.468418
608.173950	1305.076050	13348.386719	6525.711426	43.348839
608.512512	1303.201416	13325.559570	6514.683594	43.348255
608.851013	1301.216431	13280.789063	6493.180664	43.340149
609.189514	1304.965820	13184.080078	6455.909180	43.361343
609.527893	1305.186279	13073.698242	6405.403809	43.337830
609.866333	1304.414673	12945.449219	6348.833984	43.333088
610.204712	1303.091309	12806.505859	6295.020996	43.395203
610.542969	1304.304321	12678.920898	6244.736816	43.433842
610.881226	1305.627563	12564.238281	6187.836426	43.364223
611.219482	1303.532349	12470.395508	6142.624023	43.334389
611.557678	1301.547363	12383.722656	6104.028809	43.335186
611.895813	1299.011108	12310.279297	6070.616211	43.333836
612.233948	1298.018555	12237.611328	6044.922852	43.391964
612.571960	1302.098633	12167.256836	6016.031250	43.385769
612.910034	1306.619873	12098.998047	5985.154785	43.350365
613.247986	1306.730103	12027.210938	5949.868164	43.310917
613.585938	1308.935547	11942.411133	5913.588379	43.303368
613.923828	1305.737671	11822.654297	5860.768066	43.311459
614.261658	1308.715088	11693.414063	5807.175781	43.318165
614.599487	1306.730103	11548.295898	5741.784180	43.304455
614.937317	1307.943115	11424.239258	5682.788086	43.245518
615.275024	1307.612305	11309.556641	5632.724609	43.242714
615.612732	1306.399414	11213.178711	5584.535156	43.183922
615.950378	1305.627441	11119.227539	5542.961914	43.178188
616.288025	1302.429443	11032.443359	5507.233887	43.214787
616.625549	1303.421997	10971.901367	5471.064941	43.105465
616.963074	1304.414307	10919.523438	5443.937500	43.052277
617.300537	1305.517212	10871.445313	5425.521973	43.069580
617.638000	1305.296631	10823.035156	5406.113770	43.086048
617.975464	1309.266357	10790.614258	5403.026367	43.176983
618.312744	1310.369141	10753.563477	5386.154297	43.161087
618.650024	1309.486938	10720.259766	5375.899414	43.210190
618.987305	1308.274048	10683.428711	5361.563477	43.234379
619.324585	1305.958374	10658.507813	5347.338379	43.211529
619.661743	1302.429565	10644.723633	5333.884766	43.152733
619.998901	1299.783081	10616.824219	5326.717773	43.221176
620.336060	1298.018799	10589.255859	5312.161621	43.203533
620.673096	1295.151611	10567.752930	5303.339844	43.226147
621.010193	1298.459717	10548.125000	5295.069336	43.208157
621.347168	1296.254272	10527.833984	5278.308105	43.135128
621.684082	1297.908447	10493.208984	5268.934570	43.185387
622.020996	1297.356934	10457.591797	5257.245605	43.229118
622.357849	1298.128906	10433.993164	5247.541504	43.229763
622.694641	1299.562500	10412.929688	5234.750000	43.180389
623.031433	1303.863037	10391.095703	5225.156250	43.151676
623.368164	1305.296631	10386.905273	5218.649902	43.090973
623.704895	1306.619873	10376.759766	5221.847656	43.166126
624.041504	1307.832886	10383.927734	5226.148438	43.171822
624.378174	1305.737671	10402.343750	5233.646973	43.179939
624.714783	1311.692505	10445.901367	5246.438477	43.077030
625.051331	1308.715210	10478.101563	5257.907227	43.069313
625.387756	1309.156250	10514.711914	5267.831543	43.003109
625.724304	1309.486938	10534.119141	5273.234863	42.969173
626.060669	1310.589600	10552.314453	5281.064453	42.962490
626.397034	1310.369141	10560.364258	5279.630859	42.910961
626.733337	1310.369141	10564.333984	5280.733398	42.904465
627.069641	1307.502075	10570.950195	5272.903809	42.806973
627.405884	1309.486938	10560.474609	5278.527832	42.903973
627.742126	1308.935669	10550.439453	5272.352539	42.887142
628.078308	1308.053467	10538.639648	5273.234863	42.956985
628.414429	1304.524780	10513.057617	5267.390137	43.034706
628.750488	1304.414551	10493.319336	5250.519043	42.944233
629.086548	1301.767944	10460.126953	5240.042969	43.001968
629.422546	1299.121338	10419.546875	5224.384277	43.038155
629.758545	1297.798096	10365.293945	5203.542969	43.074127
630.094421	1294.710571	10318.648438	5181.598633	43.073086
630.430298	1293.497437	10264.283203	5159.874512	43.099644
630.766113	1293.276855	10200.986328	5135.063477	43.128784
631.101929	1292.615479	10124.567383	5108.928711	43.210304
631.437622	1293.166626	10043.185547	5070.002930	43.163754
631.773376	1288.865967	9950.115234	5033.833496	43.238194
632.109070	1292.725586	9856.714844	4995.238281	43.233505
632.444641	1292.946167	9763.423828	4960.833496	43.302013
632.780273	1293.387329	9687.446289	4926.539063	43.282421
633.115784	1294.489990	9618.195313	4899.080566	43.305122
633.451294	1297.246826	9549.165039	4868.975586	43.283619
633.786682	1299.121338	9481.458008	4843.171875	43.313427
634.122131	1302.650146	9403.604492	4816.265625	43.372860
634.457458	1301.106323	9351.556641	4783.073730	43.251835
634.792847	1303.311768	9290.575195	4756.497559	43.233654
635.128113	1303.201538	9227.279297	4726.172363	43.197086
635.463318	1304.414429	9176.002930	4700.699219	43.146114
635.798584	1300.775513	9127.813477	4683.497070	43.218414
636.133728	1301.657715	9074.221680	4655.929199	43.155277
636.468872	1304.965820	9012.358398	4627.699219	43.110992
636.803955	1305.737793	8963.067383	4606.637695	43.107716
637.139038	1303.201416	8913.554688	4586.457031	43.141960
637.473999	1305.406860	8849.266602	4560.322754	43.146561
637.808899	1305.958374	8783.101563	4529.446777	43.111229
638.143799	1307.391846	8715.173828	4493.166504	43.005783
638.478638	1309.156128	8654.302734	4458.210449	42.872585
638.813538	1309.156006	8589.573242	4421.930664	42.755444
639.148315	1305.516968	8517.233398	4389.179688	42.759068
639.483032	1306.509521	8454.048828	4357.531738	42.686333
639.817749	1303.421875	8386.782227	4330.735352	42.738380
640.152405	1302.098633	8323.044922	4301.071777	42.714657
640.487000	1301.547363	8252.250000	4277.915039	42.821106
640.821594	1301.326782	8187.410156	4251.118164	42.836998
641.156128	1299.121338	8138.338379	4228.291992	42.829037
641.490662	1297.687744	8078.791504	4207.119629	42.904991
641.825134	1298.569946	8018.140625	4188.814941	43.012348
642.159546	1298.459717	7977.560059	4166.980469	42.947708
642.493896	1302.760376	7925.291016	4148.014160	42.963242
642.828186	1301.216553	7883.938477	4125.738770	42.908123
643.162537	1299.562622	7849.974609	4115.261719	42.985069
643.496765	1293.718140	7814.246094	4103.793945	43.095833
643.830994	1292.505005	7780.061523	4089.458252	43.112579
644.165100	1293.387329	7751.059570	4073.799805	43.055958
644.499268	1292.615479	7734.409180	4059.244141	42.948109
644.833313	1291.071655	7720.955566	4049.540527	42.900757
645.167358	1288.535278	7705.075684	4047.665527	43.000278
645.501343	1287.652954	7682.139648	4048.106689	43.169273
645.835327	1287.873535	7662.069824	4046.342285	43.275555
646.169189	1289.638062	7648.727539	4042.813721	43.295128
646.503052	1289.417358	7636.818359	4039.395020	43.324467
646.836914	1293.387207	7626.342285	4031.786133	43.240459
647.170654	1295.041260	7611.676270	4027.044189	43.250923
647.504395	1296.584961	7607.376465	4020.097168	43.156429
647.838074	1296.695435	7601.641602	4018.112793	43.163216
648.171753	1299.562500	7598.995605	4006.534180	42.971672
648.505371	1300.665283	7600.097656	4002.454346	42.889404
648.838928	1301.988525	7603.184570	3996.499268	42.761890
649.172424	1304.635010	7610.131836	3992.750000	42.631294
649.505920	1302.870728	7606.382324	3993.191162	42.679707
649.839294	1308.274048	7598.001465	3991.647705	42.662796
650.172729	1310.920532	7596.127441	3990.104248	42.626816
650.506104	1314.890381	7600.207520	3992.309082	42.597988
650.839355	1317.536987	7584.989746	3989.110840	42.626148
651.172668	1318.308838	7565.913086	3985.581787	42.692730
651.505859	1316.875244	7542.977051	3979.186035	42.760479
651.839111	1319.080688	7527.979980	3973.893311	42.758183
652.172241	1321.175903	7515.959961	3960.660645	42.608181
652.505371	1319.521729	7502.616211	3953.823730	42.604912
652.838379	1320.845093	7475.930176	3945.553223	42.642921
653.171387	1319.632202	7461.924805	3930.335449	42.503727
653.504333	1318.088379	7438.988281	3916.661865	42.454109
653.837280	1318.970459	7418.918945	3913.243652	42.529430
654.170227	1319.080811	7399.731934	3902.767578	42.490295
654.503052	1315.662354	7379.772461	3895.710205	42.546188
654.835876	1315.441895	7365.657715	3890.747803	42.565521
655.168579	1312.243896	7348.234375	3890.416992	42.713341
655.501343	1312.574707	7332.906250	3888.762695	42.791462
655.833984	1310.920532	7323.863770	3885.233887	42.812866
656.166626	1312.464233	7319.673340	3894.938232	42.989582
656.499268	1313.456787	7342.720215	3904.090820	42.967670
656.831787	1312.684937	7376.904785	3917.213135	42.949108
657.164307	1311.912964	7422.889160	3929.343018	42.831623
657.496765	1311.140991	7469.424316	3945.112305	42.771194
657.829224	1311.361572	7518.275391	3966.063965	42.770084
658.161621	1315.110718	7566.463379	3984.037842	42.693596
658.493958	1317.095703	7605.831055	3998.373779	42.636204
658.826233	1310.920410	7635.494629	4012.929199	42.722382
659.158508	1310.479370	7661.739746	4026.713623	42.766857
659.490723	1311.140991	7680.155273	4031.014160	42.704773
659.822876	1310.479492	7699.012695	4031.456055	42.591568
660.154968	1306.399414	7700.555664	4040.277588	42.755886
660.487061	1307.943115	7699.343750	4048.548096	42.879570
660.819153	1303.642700	7693.719727	4045.129883	42.902256
661.151123	1305.406982	7679.934570	4041.490723	42.922142
661.483093	1308.935791	7668.576660	4039.505859	42.935917
661.815002	1310.479614	7652.807129	4032.779053	42.922718
662.146851	1312.354126	7623.915039	4026.604248	43.004417
662.478760	1314.008057	7595.354980	4006.424072	42.863674
662.810486	1311.802612	7558.523926	3992.750000	42.917671
663.142212	1309.597168	7505.482910	3966.615234	42.883587
663.473938	1306.730103	7453.654785	3940.701172	42.850227
663.805603	1306.840332	7388.263184	3912.912598	42.853001
664.137207	1307.060913	7295.854980	3875.640625	42.889763
664.468689	1306.730103	7208.187500	3839.360840	42.915344
664.800293	1304.965820	7131.107910	3806.609375	42.938251
665.131775	1304.083496	7048.623535	3770.551025	42.935856
665.463196	1302.539795	6980.255859	3747.173096	43.056633
665.794617	1304.965820	6923.795410	3721.369141	43.005455
666.125916	1309.156250	6865.902344	3705.820801	43.130718
666.457275	1308.715210	6822.564941	3692.808350	43.238270
666.788574	1305.627563	6776.801270	3680.347412	43.404209
667.119812	1306.730225	6747.910645	3669.982178	43.432705
667.450928	1307.612305	6727.731445	3652.558838	43.263744
667.782104	1311.582153	6713.063965	3639.988037	43.106796
668.113159	1308.384155	6691.230469	3628.629883	43.104439
668.444214	1304.414307	6669.286621	3616.499512	43.096745
668.775208	1303.311523	6650.980469	3602.605225	42.996185
669.106201	1304.414307	6636.645996	3597.753418	43.008995
669.437134	1303.311646	6629.367676	3594.996338	43.027798
669.768005	1302.870605	6622.200195	3592.680908	43.046970
670.098877	1300.444702	6610.951660	3591.136963	43.135098
670.429688	1303.201416	6591.874023	3582.315186	43.094246
670.760437	1299.893311	6567.504395	3570.957275	43.113735
671.091187	1298.349487	6559.564941	3572.169922	43.218536
671.421814	1296.033813	6542.692871	3568.862061	43.319530
671.752441	1295.261963	6521.189941	3553.865234	43.219185
672.083008	1292.946167	6507.185059	3546.918213	43.227253
672.413574	1293.607788	6493.731934	3540.632324	43.210976
672.744080	1296.033813	6466.936035	3531.148926	43.224857
673.074524	1293.828369	6440.581055	3510.086670	43.061291
673.404968	1297.467407	6416.541504	3496.633545	42.960228
673.735352	1301.437256	6396.582520	3477.666748	42.711823
674.065613	1303.752930	6375.410156	3466.418945	42.642197
674.395935	1302.429688	6351.700684	3451.973145	42.571362
674.726196	1301.657837	6320.494141	3441.497803	42.636173
675.056335	1304.414551	6304.504395	3432.786133	42.566666
675.386536	1304.745361	6292.815430	3426.720947	42.541012
675.716614	1306.840454	6281.346680	3423.743652	42.555042
676.046692	1308.274048	6279.913086	3418.891357	42.453144
676.376770	1310.259033	6268.334961	3414.370117	42.438053
676.706726	1312.023315	6257.638184	3405.658936	42.333176
677.036621	1310.038452	6262.820801	3404.004395	42.278576
677.366516	1310.258911	6260.616211	3401.909668	42.252522
677.696411	1314.338989	6274.068359	3407.974365	42.212692
678.026184	1313.787720	6291.381836	3404.114990	41.994728
678.355957	1312.464355	6305.166016	3412.716064	42.066437
678.685669	1312.464355	6330.639160	3427.271973	42.142963
679.015320	1309.817749	6346.187500	3437.306641	42.242508
679.344971	1306.730103	6362.838379	3443.482178	42.260803
679.674561	1305.406860	6371.991211	3454.178467	42.410652
680.004150	1301.547241	6394.928711	3465.095215	42.477634
680.333618	1299.231689	6410.145996	3470.608887	42.485104
680.663086	1299.672729	6424.701660	3480.533447	42.553143
680.992493	1298.680298	6430.987305	3475.902588	42.421898
681.321899	1298.569824	6429.002930	3482.077637	42.559914
681.651184	1298.128784	6429.994629	3481.746582	42.550171
681.980530	1296.585083	6419.849609	3486.598633	42.746449
682.309753	1295.372070	6412.682129	3479.100342	42.673363
682.638977	1290.850952	6387.650391	3471.050537	42.775860
682.968079	1288.314697	6361.735840	3461.125732	42.827335
683.297241	1288.976318	6340.563965	3447.672363	42.733021
683.626343	1288.865845	6318.619629	3438.960938	42.747524
683.955383	1293.056396	6279.803711	3420.324463	42.658432
684.284363	1294.048950	6252.235352	3411.061768	42.697319
684.613281	1292.284546	6209.890137	3390.881592	42.675182
684.942139	1296.144043	6166.111816	3381.398438	42.818649
685.271057	1299.231567	6128.619629	3357.579346	42.621292
685.599792	1301.657593	6088.370117	3338.061279	42.542847
685.928589	1305.737671	6056.721191	3318.763672	42.370724
686.257324	1310.810181	6019.118164	3297.812012	42.202034
686.585999	1310.699951	5994.527344	3275.757813	41.954105
686.914612	1310.810303	5948.323242	3258.003662	41.987881
687.243164	1310.369141	5912.043457	3238.595703	41.902718
687.571777	1307.281494	5879.072754	3225.363037	41.954708
687.900269	1308.825317	5843.344727	3214.886963	42.034477
688.228699	1309.707520	5811.365234	3205.844971	42.120872
688.557129	1305.186401	5783.466309	3190.406250	42.096966
688.885498	1306.950806	5757.552246	3175.519775	41.984638
689.213867	1310.920532	5727.668457	3165.595215	41.991859
689.542114	1311.140991	5706.827148	3150.267578	41.839352
689.870361	1310.369141	5686.095703	3129.866699	41.581612
690.198608	1305.737671	5651.470215	3121.927002	41.792480
690.526794	1305.296631	5620.042969	3109.466553	41.814045
690.854858	1302.870605	5598.098633	3096.785156	41.765293
691.182922	1300.775513	5560.605957	3082.780762	41.832771
691.510986	1300.224121	5533.919922	3071.753418	41.843567
691.838928	1297.908447	5499.404785	3053.778809	41.791550
692.166931	1297.687866	5463.015137	3037.017578	41.757336
692.494812	1296.695557	5415.708496	3015.845215	41.736935
692.822632	1295.702881	5372.591309	2996.878174	41.727295
693.150452	1293.056396	5328.923828	2979.785889	41.793480
693.478149	1296.144043	5291.430664	2965.119629	41.773613
693.805908	1294.379639	5266.067871	2947.365723	41.619232
694.133606	1294.710449	5228.244141	2934.573975	41.689323
694.461243	1296.585083	5198.580078	2925.862549	41.754986
694.788818	1295.261841	5180.605957	2920.679932	41.834599
695.116333	1293.938477	5170.019531	2912.409424	41.755344
695.443848	1295.261719	5164.505371	2914.173584	41.840527
695.771301	1292.284302	5178.620605	2921.341309	41.917549
696.098755	1289.748047	5203.322266	2931.266113	41.944218
696.426147	1293.166626	5236.514160	2951.225342	42.046982
696.753418	1293.717896	5275.661133	2976.698242	42.265301
697.080688	1297.687744	5332.451660	2996.547119	42.105545
697.407898	1298.569946	5386.485352	3018.380859	42.070606
697.735107	1301.768066	5424.308594	3042.971680	42.236179
698.062317	1303.201660	5465.219727	3059.512939	42.198551
698.389404	1306.289307	5499.735352	3075.943359	42.200470
698.716492	1305.407104	5531.273438	3083.331543	42.072426
699.043457	1303.863281	5551.122559	3092.043213	42.101971
699.370483	1305.406982	5568.545410	3101.747070	42.136562
699.697388	1309.597412	5572.294434	3104.944824	42.117638
700.024292	1313.677490	5568.766113	3107.701904	42.161854
700.351135	1314.008423	5560.936523	3106.378418	42.203915
700.677917	1318.860352	5549.137695	3107.812012	42.289230
701.004639	1319.191162	5533.699219	3106.378418	42.405598
701.331299	1319.963013	5514.731934	3092.815186	42.263405
701.658020	1321.286133	5491.244629	3074.509766	42.044151
701.984619	1319.963013	5453.972168	3058.409668	42.052315
702.311218	1319.742432	5411.186523	3041.868896	42.090919
702.637756	1319.191040	5359.027344	3017.388672	42.036297
702.964233	1319.411621	5287.901855	2990.371826	42.105690
703.290649	1316.213867	5216.665527	2953.871582	41.986362
703.617065	1319.080933	5132.086914	2916.709717	41.899456
703.943481	1320.624756	5047.287109	2882.304932	41.905598
704.269775	1320.735107	4959.289551	2846.576660	41.935379
704.596008	1319.522095	4881.105957	2812.281982	41.912807
704.922241	1317.095947	4814.500977	2785.485596	41.985119
705.248474	1316.323975	4747.565430	2758.909668	42.042675
705.574585	1315.882935	4687.687500	2738.399170	42.188572
705.900696	1316.103271	4637.072266	2716.675293	42.173595
706.226746	1314.559570	4597.925781	2693.628418	42.001675
706.552734	1311.692505	4570.799316	2680.836914	42.009804
706.878723	1306.068604	4551.612305	2674.110107	42.151382
707.204651	1302.649902	4529.888672	2666.611572	42.264046
707.530518	1301.547363	4516.986328	2658.892822	42.213379
707.856323	1302.098633	4510.700684	2653.158447	42.107430
708.182068	1301.988403	4514.008789	2653.489502	42.076355
708.507813	1299.341797	4509.597656	2662.311279	42.456726
708.833496	1301.106201	4522.278809	2662.531738	42.264904
709.159180	1301.878052	4538.268066	2668.707031	42.233135
709.484802	1303.091187	4550.949219	2674.551514	42.226612
709.810303	1303.752563	4569.696289	2681.057617	42.171730
710.135864	1306.178711	4579.620117	2685.358154	42.132401
710.461304	1306.288818	4591.309570	2690.320313	42.131592
710.786743	1305.627319	4600.352051	2691.643555	42.067741
711.112122	1305.847900	4608.181152	2694.510742	42.050961
711.437500	1305.406860	4615.128418	2696.716309	42.037052
711.762817	1308.825195	4614.136230	2696.385498	41.979721
712.088013	1307.171143	4618.546875	2693.959473	41.879520
712.413269	1309.266357	4613.364258	2694.731201	41.931713
712.738403	1312.133423	4616.562012	2696.165039	41.884144
713.063538	1313.125977	4610.276855	2700.355225	42.073574
713.388611	1312.243652	4604.983398	2697.047119	42.056267
713.713623	1309.817749	4597.154297	2689.989502	41.984501
714.038574	1312.243652	4596.713379	2684.696533	41.786133
714.363525	1310.258789	4590.096680	2681.829346	41.818241
714.688477	1305.847900	4579.951660	2679.072510	41.942001
715.013306	1306.730103	4555.581543	2672.897217	42.050770
715.338135	1307.391724	4534.299316	2657.900391	41.851482
715.662842	1306.068604	4507.282227	2649.409180	41.963478
715.987549	1306.950684	4475.633789	2630.221924	41.760921
716.312195	1308.274048	4442.441406	2618.422852	41.802132
716.636841	1303.863037	4403.735840	2600.117676	41.816383
716.961426	1300.003540	4372.087891	2582.915039	41.760292
717.285950	1297.687744	4341.210938	2567.807617	41.731895
717.610474	1293.497437	4300.630371	2556.449707	41.998554
717.934937	1293.056396	4265.012695	2543.878418	42.087498
718.259277	1292.615234	4230.827637	2524.690918	41.932831
718.583679	1291.291992	4202.046875	2508.150146	41.805588
718.908020	1288.535156	4169.406738	2491.829834	41.768425
719.232239	1286.881104	4142.720703	2476.170898	41.644138
719.556519	1287.542725	4115.262695	2461.504883	41.516209
719.880737	1287.322144	4084.717285	2443.971436	41.347370
720.204834	1284.344727	4055.274902	2435.259766	41.535332
720.528931	1288.755615	4025.060303	2425.004639	41.524944
720.852966	1286.440063	3988.890625	2408.573975	41.522827
721.176941	1288.424805	3950.295410	2391.040771	41.422600
721.500916	1289.307129	3919.970703	2375.161377	41.276817
721.824829	1284.675537	3898.798096	2361.046387	41.175224
722.148743	1284.785767	3867.370117	2351.673340	41.310848
722.472534	1288.535034	3844.874268	2344.395264	41.303600
722.796326	1289.417236	3823.701660	2339.763672	41.445484
723.119995	1288.424805	3799.882813	2322.671387	41.181122
723.443665	1293.056396	3787.201172	2315.834717	41.007175
723.767334	1294.820801	3769.006348	2315.614502	41.257767
724.090942	1294.600220	3758.751221	2311.423828	41.264664
724.414551	1299.231689	3752.686035	2303.153564	40.918709
724.737976	1300.223999	3747.503418	2297.088623	40.733585
725.061462	1302.539795	3747.393555	2299.845703	40.792049
725.384888	1302.870728	3747.834717	2300.948242	40.821770
725.708252	1303.311768	3747.503662	2304.145996	40.947449
726.031616	1303.863159	3752.465820	2312.747314	41.202446
726.354858	1302.981079	3753.017090	2314.952393	41.304344
726.678162	1301.878296	3762.721436	2323.443359	41.512806
727.001404	1305.517334	3766.580811	2323.443359	41.361225
727.324463	1307.281860	3771.102051	2325.759033	41.337315
727.647583	1309.928345	3778.269775	2333.588623	41.471584
727.970642	1306.179077	3790.069092	2339.984375	41.620411
728.293701	1308.715210	3792.384766	2345.277588	41.735119
728.616699	1309.707642	3797.126221	2355.422607	42.040173
728.939575	1309.928223	3815.431152	2360.715576	41.939178
729.262512	1305.958252	3825.686768	2361.708252	41.899357
729.585266	1305.627441	3834.950195	2366.560059	41.945324
729.908142	1304.193848	3854.909180	2370.971191	41.822674
730.230896	1302.098633	3868.252197	2376.594971	41.871864
730.553467	1304.193848	3887.329346	2381.667480	41.711849
730.876160	1301.106201	3901.333740	2382.880859	41.603077
731.198792	1296.695313	3912.360840	2394.018311	41.951962
731.521362	1294.159058	3927.357910	2398.098145	41.923882
731.843872	1293.056152	3925.152832	2398.318848	41.991722
732.166321	1289.968506	3925.152832	2396.885010	42.005280
732.488770	1291.732910	3926.476074	2394.900146	41.870010
732.811157	1289.196655	3919.639404	2386.629883	41.720474
733.133484	1288.755615	3912.250732	2383.100586	41.713245
733.455811	1290.299438	3894.386475	2375.051025	41.655735
733.778015	1290.961182	3877.845947	2374.940430	41.902882
734.100281	1289.527710	3869.685547	2363.802979	41.636032
734.422424	1286.660522	3857.666016	2355.532471	41.574085
734.744507	1290.189331	3842.668945	2347.041748	41.404934
735.066589	1288.645508	3832.192627	2341.307373	41.385586
735.388611	1291.512695	3820.062988	2329.728516	41.059727
735.710571	1290.630493	3804.293945	2320.135010	40.956337
736.032532	1292.505005	3794.038574	2313.408447	40.811100
736.354431	1292.284424	3781.467529	2299.734619	40.473125
736.676270	1293.276733	3765.367920	2298.962646	40.681583
736.998108	1298.900879	3751.914551	2295.433838	40.624844
737.319824	1297.687866	3736.807373	2289.258545	40.652809
737.641541	1301.547485	3717.729980	2284.958008	40.701000
737.963135	1302.209106	3696.888672	2281.319092	40.886887
738.284790	1303.311890	3671.305176	2274.041260	40.993759
738.606323	1303.532227	3660.498047	2267.645264	40.904839
738.927856	1305.517334	3650.022217	2259.044434	40.670723
739.249390	1307.391968	3639.436279	2250.663574	40.448269
739.570740	1311.913086	3628.740234	2245.370605	40.290340
739.892212	1310.810303	3617.933350	2244.157471	40.455025
740.213562	1308.604858	3610.214355	2241.842041	40.547157
740.534790	1310.479614	3603.818359	2233.130615	40.231777
740.856079	1306.730347	3588.931641	2233.791992	40.621380
741.177246	1304.304443	3578.455322	2229.601807	40.687599
741.498413	1306.399536	3569.964600	2228.939941	40.756084
741.819580	1307.943237	3562.245605	2223.205811	40.600704
742.140625	1309.707642	3551.989990	2219.456543	40.572453
742.461670	1307.722534	3536.992920	2213.942627	40.650970
742.782654	1306.950562	3515.489990	2211.958008	40.977642
743.103577	1309.155884	3498.728760	2206.003418	40.959934
743.424438	1309.707275	3477.335938	2199.387207	41.043926
743.745300	1305.847900	3448.003418	2193.983643	41.459911
744.066101	1304.745117	3421.758545	2183.177002	41.493919
744.386902	1303.421875	3399.924561	2175.347412	41.589527
744.707581	1302.649902	3381.399170	2156.711426	41.085354
745.028198	1302.429443	3367.504395	2149.764160	41.031670
745.348816	1299.562378	3355.815430	2138.405762	40.794758
745.669373	1297.357056	3337.620605	2135.097900	41.060425
745.989929	1295.261963	3316.558350	2133.112793	41.451160
746.310364	1293.497437	3301.892090	2128.150879	41.558239
746.630798	1294.159180	3289.431641	2115.028564	41.140717
746.951172	1290.409912	3286.343750	2107.419678	40.933708
747.271545	1286.109375	3276.529297	2108.632568	41.324104
747.591858	1290.299683	3275.537109	2103.670654	40.970966
747.912109	1295.261841	3266.936035	2103.670166	41.001110
748.232300	1291.512695	3258.555176	2101.244141	41.164921
748.552429	1294.159180	3245.542725	2098.707764	41.229649
748.872559	1289.637817	3235.066895	2094.627686	41.378525
749.192627	1293.387329	3235.287598	2096.612793	41.362858
749.512695	1293.166626	3236.941162	2094.076416	41.203842
749.832642	1293.938477	3234.956543	2095.289551	41.285091
750.152588	1295.592651	3234.625732	2090.878662	41.014565
750.472473	1295.592651	3243.116455	2080.512939	40.303501
750.792358	1297.246704	3246.204346	2075.881592	39.951351
751.112122	1298.570068	3241.242188	2077.645752	40.103302
751.431824	1300.775391	3249.181641	2079.740967	39.979630
751.751587	1300.334351	3246.093750	2079.189697	40.028347
752.071228	1299.452148	3243.447510	2083.600586	40.336948
752.390869	1300.665161	3240.911133	2080.072021	40.170517
752.710327	1303.752808	3238.595215	2076.102051	39.917942
753.029846	1303.201416	3238.595215	2073.124756	39.781223
753.349304	1304.524780	3236.610596	2075.661133	39.912117
753.668762	1305.186279	3230.545654	2075.660889	40.017185
753.988098	1304.965820	3223.157471	2067.280273	39.741306
754.307434	1304.193848	3213.674072	2063.641113	39.772461
754.626770	1303.862915	3210.917480	2057.466064	39.516602
754.946045	1302.760376	3209.262939	2053.385986	39.371864
755.265259	1299.011108	3208.050293	2047.210571	39.192463
755.584351	1300.885742	3207.277832	2046.328491	39.102280
755.903442	1299.562500	3202.756592	2043.020264	39.063686
756.222534	1298.459839	3192.391357	2039.712036	39.138279
756.541565	1296.033813	3191.288330	2043.130371	39.419327
756.860535	1295.813354	3191.178223	2046.107910	39.585758
757.179443	1294.820923	3185.995605	2050.629150	39.965015
757.498291	1297.467529	3183.789795	2051.290771	39.962589
757.817139	1300.665405	3188.752197	2050.187988	39.697464
758.135925	1302.540039	3184.892822	2054.268311	39.935566
758.454651	1301.657837	3183.569092	2055.591553	40.062130
758.773376	1305.958374	3179.820313	2056.032471	40.028248
759.092041	1306.178955	3185.002930	2052.393555	39.717110
759.410645	1302.540039	3189.193359	2052.944824	39.774387
759.729187	1301.547485	3180.482178	2054.268066	40.061031
760.047607	1301.768188	3185.223633	2054.378418	39.959015
760.366089	1305.406982	3187.319092	2054.268066	39.792564
760.684509	1305.186523	3201.543945	2061.766357	39.896477
761.002869	1305.627563	3227.237305	2072.352783	39.900154
761.321228	1304.193970	3265.833008	2089.775635	40.047207
761.639465	1306.840576	3313.470703	2112.161133	40.132984
761.957642	1306.730225	3365.739990	2135.318359	40.242069
762.275879	1304.965820	3409.297607	2163.106934	40.779743
762.593994	1303.752930	3447.561768	2175.347168	40.656342
762.912109	1302.539673	3483.180176	2188.028564	40.606823
763.230103	1305.296387	3503.359863	2195.527100	40.500683
763.548157	1302.649780	3515.710449	2199.386719	40.520218
763.866150	1302.980713	3529.274170	2203.687256	40.457672
764.184021	1301.326660	3539.860596	2208.980225	40.546787
764.501892	1298.018555	3546.587158	2211.626953	40.630665
764.819702	1295.923340	3544.491699	2205.672363	40.459034
765.137451	1296.474731	3548.792725	2200.709961	40.146873
765.455200	1292.504883	3554.416748	2198.614746	40.059467
765.772888	1293.607666	3544.161377	2201.922852	40.359631
766.090515	1293.828247	3534.347168	2198.504395	40.377972
766.408081	1295.371948	3534.897949	2199.055908	40.351574
766.725586	1293.938477	3525.415283	2198.504395	40.536648
767.043091	1294.269287	3515.600342	2192.329102	40.428905
767.360535	1294.820679	3500.824463	2181.081299	40.174934
767.677917	1293.497437	3468.404053	2168.179443	40.216988
767.995239	1291.512573	3422.089355	2144.912109	40.054863
768.312500	1292.174194	3362.983643	2117.674805	39.863667
768.629822	1290.299561	3302.553467	2092.753418	39.878361
768.947021	1290.520142	3246.204346	2061.766846	39.436157
769.264160	1294.379639	3190.406738	2043.130615	39.490520
769.581299	1294.379639	3148.392822	2026.589600	39.493244
769.898376	1292.505005	3111.230713	2010.048950	39.453114
770.215393	1292.174072	3077.928467	1996.926392	39.465244
770.532349	1292.504883	3049.698975	1986.671143	39.504246
770.849304	1291.512451	3019.925293	1982.039673	39.951523
771.166199	1290.740601	2998.863281	1972.114990	39.890247
771.483032	1287.542725	2981.770752	1963.182983	39.878944
771.799866	1288.645508	2961.260010	1957.669312	39.998684
772.116577	1291.622803	2940.528564	1947.413818	39.771286
772.433350	1293.938599	2928.509033	1939.364014	39.485935
772.749939	1294.931030	2919.025391	1939.694946	39.699905
773.066589	1294.048828	2905.131348	1929.549805	39.445587
773.383057	1297.357178	2888.811035	1924.146362	39.384689
773.699646	1298.680420	2876.460205	1919.845825	39.369587
774.016113	1300.885864	2860.029785	1915.214233	39.401646
774.332520	1303.201660	2851.208008	1907.826050	39.058262
774.648804	1308.494751	2842.055176	1906.171875	38.973171
774.965149	1307.943359	2831.689697	1901.760986	38.970898
775.281433	1313.126099	2820.993164	1898.232178	38.803558
775.597656	1313.677490	2814.156494	1894.482910	38.708000
775.913879	1312.905640	2807.540283	1889.741455	38.593769
776.229980	1314.449463	2797.836426	1886.102539	38.537018
776.546082	1312.023315	2787.691162	1881.911987	38.619034
776.862122	1315.882935	2780.854248	1877.611450	38.343994
777.178162	1317.978149	2771.812012	1871.987305	38.106773
777.494141	1315.331421	2767.621582	1866.694214	37.965057
777.809998	1314.780151	2755.822266	1864.599121	38.154263
778.125854	1316.544556	2750.309082	1866.915161	38.386402
778.441711	1317.426758	2744.133789	1867.466553	38.553101
778.757446	1316.323975	2737.847900	1865.812256	38.654873
779.073181	1313.567017	2733.547363	1863.937744	38.759037
779.388855	1316.323853	2727.702637	1856.880249	38.299881
779.704468	1315.552124	2723.623047	1858.644531	38.569962
780.020020	1310.258911	2717.888672	1854.454224	38.660400
780.335571	1311.251343	2708.736328	1851.807617	38.680649
780.651062	1310.479492	2703.222168	1846.734741	38.503540
780.966553	1307.722656	2697.708740	1845.963013	38.722717
781.281860	1301.657471	2686.020020	1846.845093	39.381851
781.597290	1301.767944	2678.631592	1840.118530	39.099773
781.912476	1299.231812	2675.102783	1839.126343	39.240200
782.227722	1300.775635	2666.060547	1829.532593	38.728691
782.542908	1299.011108	2654.923096	1823.688110	38.695507
782.858093	1299.452148	2642.682373	1817.292236	38.551849
783.173218	1302.539917	2640.256836	1814.425171	38.265587
783.488281	1300.003662	2639.595215	1810.896606	38.137962
783.803345	1299.562622	2630.883789	1807.257446	38.134663
784.118225	1301.547485	2618.202148	1797.553345	37.671673
784.433167	1302.208862	2609.821533	1790.716553	37.358746
784.748047	1303.532227	2603.425537	1784.320679	36.986763
785.062866	1306.619995	2590.193115	1775.057861	36.494831
785.377686	1305.958374	2579.276123	1775.609131	36.884018
785.692444	1306.619995	2568.689697	1772.301025	36.898201
786.007141	1305.517334	2564.830078	1768.882813	36.795109
786.321716	1308.825439	2558.765137	1768.551758	36.779881
786.636353	1311.141113	2562.073242	1769.764893	36.662563
786.950928	1309.487061	2567.256104	1770.647095	36.664921
787.265442	1308.715088	2574.313721	1771.088379	36.533958
787.579834	1304.414551	2570.674561	1771.418945	36.880608
787.894226	1308.163696	2576.850098	1768.441772	36.279892
788.208618	1304.193970	2578.834961	1772.521606	36.741924
788.522949	1305.517212	2574.424072	1769.985352	36.603802
788.837219	1302.870605	2574.424072	1768.551758	36.623009
789.151367	1303.752808	2579.937500	1769.433960	36.490105
789.465515	1301.657593	2579.937744	1765.243530	36.266380
789.779602	1299.893188	2571.005615	1766.897705	36.739826
790.093689	1303.973267	2559.427002	1762.376465	36.512951
790.407776	1300.554688	2555.016113	1765.574463	37.069275
790.721741	1299.672607	2549.943848	1766.235840	37.316959
791.035645	1298.018555	2541.562988	1765.022827	37.554291
791.349548	1296.695190	2534.615967	1761.494019	37.546734
791.663391	1293.938477	2536.270020	1761.604492	37.644218
791.977173	1296.805664	2532.630859	1755.760254	37.137501
792.290894	1296.254150	2521.714111	1751.680298	37.163689
792.604614	1298.790771	2510.466064	1748.261719	37.095001
792.918274	1299.231812	2501.754639	1738.447388	36.524509
793.231812	1298.680542	2485.764893	1729.184570	36.265663
793.545410	1298.459839	2473.083496	1724.222046	36.246693
793.858948	1300.113892	2456.983398	1720.031860	36.297783
794.172363	1304.524780	2451.690186	1714.518433	35.739716
794.485840	1302.209106	2442.427490	1713.856812	36.102531
794.799194	1308.494629	2439.449951	1707.130005	35.247669
795.112488	1307.171265	2438.126953	1700.513794	34.779659
795.425781	1309.156128	2435.370117	1702.498535	34.926083
795.738953	1305.958374	2428.533203	1700.292969	35.127689
796.052185	1307.061035	2428.753906	1702.498657	35.253643
796.365234	1307.171265	2428.754150	1697.536133	34.804817
796.678284	1305.627441	2429.966797	1693.676758	34.513542
796.991333	1308.825317	2427.540771	1686.950195	33.799915
797.304382	1309.927979	2429.305176	1687.060303	33.691265
797.617310	1312.023193	2428.974121	1682.649414	33.181961
797.930115	1312.574463	2422.468262	1682.869995	33.363152
798.242981	1314.890259	2417.726318	1679.341187	33.046700
798.555786	1313.236084	2413.425781	1681.326050	33.456955
798.868530	1317.205933	2412.764160	1680.113037	33.125313
799.181213	1313.346436	2411.110352	1678.569214	33.269703
799.493896	1313.125854	2406.479004	1678.018066	33.373684
799.806519	1316.985474	2406.037842	1678.348755	33.181442
800.119080	1318.198608	2402.068115	1675.371460	32.953491
800.431580	1315.000610	2392.033203	1671.291504	33.080791
800.744080	1313.897949	2382.329346	1668.093384	33.150974
801.056458	1315.000732	2373.948486	1662.689941	32.833462
801.368835	1312.133667	2360.054199	1662.910767	33.473637
801.681152	1314.890381	2348.144531	1661.587280	33.553883
801.993408	1316.765015	2338.440430	1656.514648	33.254166
802.305664	1319.962891	2329.397949	1652.214111	32.914570
802.617798	1320.845093	2318.812012	1643.723267	32.353596
802.929993	1320.403809	2310.431396	1640.966187	32.379135
803.242065	1321.396240	2301.058105	1641.958862	32.721764
803.554016	1318.418945	2295.985596	1642.179321	33.119007
803.865967	1318.639404	2289.479492	1643.833496	33.496155
804.177979	1316.103271	2288.045898	1647.693115	34.116196
804.489807	1314.890381	2288.045654	1645.708130	33.994343
804.801697	1311.251343	2286.281494	1644.495117	34.177792
805.113464	1310.369263	2280.547363	1639.312500	33.905449
805.425232	1306.730225	2282.311523	1638.209473	33.977615
805.736938	1305.627563	2277.900879	1633.467773	33.718937
806.048584	1300.554932	2273.269287	1632.365112	34.111778
806.360168	1297.467285	2267.535400	1631.813843	34.466297
806.671753	1296.915771	2257.280029	1630.490479	34.734184
806.983276	1298.790527	2257.831299	1626.189941	34.138218
807.294739	1300.223999	2252.979248	1624.425537	34.027790
807.606140	1301.437012	2248.568359	1620.235107	33.659332
807.917542	1301.326782	2247.906738	1617.257568	33.376026
808.228760	1301.216431	2242.393311	1614.831787	33.321617
808.540100	1300.223999	2231.917236	1614.500977	33.731808
808.851318	1297.026123	2225.080322	1615.493286	34.315578
809.162476	1297.356934	2217.361328	1616.816772	34.723728
809.473633	1297.246704	2212.840088	1613.618896	34.553787
809.784668	1291.071411	2206.113525	1611.633911	35.032539
810.095703	1295.813110	2194.975830	1608.105225	34.731434
810.406738	1298.570068	2186.594971	1602.481445	34.223293
810.717590	1302.870605	2174.465332	1595.313599	33.552635
811.028503	1303.311890	2163.548096	1588.807495	33.188049
811.339294	1303.201416	2153.733887	1586.160889	33.268509
811.650085	1302.209106	2148.661377	1582.191040	33.077106
811.960876	1299.231812	2137.082764	1582.742554	33.837849
812.271545	1301.988525	2129.143311	1584.727539	34.182117
812.582153	1309.045898	2126.496582	1580.206055	33.171440
812.892761	1307.281616	2116.902832	1577.559692	33.383274
813.203308	1302.980957	2115.579590	1576.457031	33.654507
813.513855	1303.973511	2111.058594	1580.206299	34.225983
813.824280	1303.311768	2107.530029	1577.008423	34.032635
814.134705	1301.988525	2105.765869	1574.361816	33.886658
814.445068	1301.437012	2096.943604	1572.266602	34.044922
814.755371	1301.437012	2098.156738	1570.612305	33.785442
815.065613	1299.562378	2102.016113	1567.965820	33.447842
815.375854	1302.980835	2101.354492	1565.319336	32.859112
815.686035	1302.208984	2104.111328	1567.965942	33.140812
815.996155	1303.311646	2104.442139	1568.296509	33.076366
816.306152	1308.053467	2105.544922	1567.524536	32.535908
816.616211	1306.840454	2114.036133	1564.437134	31.912544
816.926208	1303.091187	2117.675049	1560.687866	31.623102
817.236145	1303.752930	2126.166016	1563.003662	31.523176
817.546021	1304.524780	2139.619141	1569.178955	31.691530
817.855774	1305.186401	2151.638916	1577.339111	32.152153
818.165588	1305.958252	2168.951660	1583.404053	32.149239
818.475281	1309.928101	2192.218750	1588.366455	31.558575
818.784973	1305.406860	2222.102783	1598.731934	31.998077
819.094604	1299.231689	2250.112061	1611.192871	32.807617
819.404175	1298.790405	2295.434082	1627.072144	32.938728
819.713684	1298.680298	2358.620117	1654.199219	33.541424
820.023254	1297.577515	2484.661865	1711.871826	34.900158
820.332642	1295.923340	2704.766113	1819.387451	37.155609
820.642090	1295.923584	2994.231445	1953.809692	38.737740
820.951416	1296.144043	3298.804688	2090.106689	39.645390
821.260681	1292.725586	3552.982910	2204.679932	40.347366
821.569946	1293.497559	3751.914551	2295.875488	40.773308
821.879150	1294.159180	3915.779785	2368.875732	40.994358
822.188293	1295.592773	4045.460449	2423.019531	40.999310
822.497437	1298.018799	4152.204102	2472.201172	41.138969
822.806458	1298.018799	4247.811035	2513.333008	41.199993
823.115479	1298.790649	4328.861328	2548.289307	41.236614
823.424438	1300.334473	4405.721191	2584.458740	41.351509
823.733337	1295.813232	4468.245605	2612.908936	41.516903
824.042236	1296.144043	4520.073730	2638.271484	41.630173
824.351013	1295.372192	4567.932129	2654.702148	41.537205
824.659790	1297.467407	4607.079102	2675.102539	41.625278
824.968445	1297.908447	4665.522949	2698.370117	41.586163
825.277100	1301.106445	4735.656250	2726.599854	41.504520
825.585693	1304.635010	4822.220703	2768.283203	41.609455
825.894287	1309.376709	4879.562012	2793.094482	41.558563
826.202820	1314.890381	4901.395996	2807.209229	41.609272
826.511292	1313.787720	4834.019531	2776.884277	41.562504
826.819702	1316.213745	4662.435059	2692.746338	41.136929
827.128113	1320.073242	4409.911133	2577.952637	40.710205
827.436401	1319.962769	4141.618164	2455.770508	40.253242
827.744751	1321.506592	3911.148438	2356.966064	39.984661
828.052917	1322.057983	3731.293945	2276.136475	39.600876
828.361145	1319.521729	3583.308105	2212.068115	39.427147
828.669312	1320.183350	3465.977295	2159.026855	39.092453
828.977356	1315.993164	3366.732178	2114.035645	38.914871
829.285400	1312.464233	3275.867920	2077.094238	38.944107
829.593384	1310.920532	3197.353516	2039.822388	38.639160
829.901306	1307.833008	3122.257813	2005.747925	38.464802
830.209167	1312.133667	3057.858887	1975.092285	37.976116
830.517029	1312.795288	2998.532471	1949.067871	37.744473
830.824829	1314.669922	2946.704346	1926.462280	37.486485
831.132568	1311.802856	2898.073975	1904.187134	37.344452
831.440247	1308.935791	2841.724609	1881.801758	37.374096
831.747925	1308.384399	2783.059814	1859.967651	37.403706
832.055481	1305.848022	2716.786133	1828.429688	37.037888
832.363037	1306.178833	2668.706787	1812.440430	37.156052
832.670532	1304.635010	2628.898438	1794.465820	36.988926
832.977966	1306.178833	2611.034180	1786.195068	36.786930
833.285400	1308.825317	2591.847168	1779.468506	36.682400
833.592712	1306.840454	2572.659668	1774.726929	36.963135
833.900085	1307.391724	2552.700195	1768.551758	37.031792
834.207275	1302.760254	2539.798096	1760.612183	37.011959
834.514526	1301.767822	2527.668213	1754.988525	36.970436
834.821716	1302.760376	2517.964111	1750.136353	36.814896
835.128784	1303.091187	2508.921631	1752.672485	37.283958
835.435852	1306.399292	2503.297852	1748.371826	36.926483
835.742798	1308.163696	2494.696533	1744.732910	36.793690
836.049805	1307.722534	2485.323730	1742.637817	36.932308
836.356750	1309.597168	2474.847656	1740.763184	37.002003
836.663574	1306.950562	2463.930664	1737.234375	37.190250
836.970398	1307.060913	2452.021484	1728.633057	36.819798
837.277161	1304.524658	2437.244629	1719.700928	36.653038
837.583923	1305.075928	2424.122314	1711.099487	36.282997
837.890564	1308.053345	2396.774658	1697.866943	35.804718
838.197205	1308.604858	2354.650391	1679.892822	35.494434
838.503784	1311.692505	2308.005371	1661.036255	35.063660
838.810303	1309.376709	2257.059326	1635.452759	34.407726
839.116699	1306.509766	2211.626953	1612.736572	33.832836
839.423096	1309.046021	2160.791260	1589.248535	32.897457
839.729492	1308.715210	2120.541992	1571.274170	32.341747
840.035828	1304.745361	2089.996582	1556.497437	32.060066
840.342102	1302.760620	2067.500732	1544.918945	31.665440
840.648315	1308.494751	2039.601807	1532.568237	30.648520
840.954529	1311.692505	2021.517090	1524.407959	29.967327
841.260620	1313.015747	2003.432251	1514.814331	29.228529
841.566711	1310.258911	1989.207275	1504.559082	28.617813
841.872803	1309.707397	1968.365845	1496.950195	28.427904
842.178772	1312.795044	1954.250977	1492.649780	28.038517
842.484680	1310.920532	1935.394165	1492.649780	29.101189
842.790588	1312.574585	1921.830688	1485.812866	28.434395
843.096436	1313.567017	1911.354858	1480.960938	28.002230
843.402222	1314.118286	1899.996826	1478.645142	28.082075
843.707947	1315.551880	1889.300415	1473.903442	27.599472
844.013611	1315.993042	1878.162720	1471.367188	27.638300
844.319275	1313.125977	1861.070679	1468.279541	28.315552
844.624817	1314.118530	1844.529785	1460.670654	27.629904
844.930359	1311.913086	1820.380005	1452.069580	27.564526
845.235901	1311.030884	1800.530884	1443.247803	27.010607
845.541321	1315.993164	1778.035400	1431.889526	25.083500
845.846680	1311.913086	1765.354004	1426.045166	25.170221
846.152039	1311.472046	1751.459839	1419.208130	24.486153
846.457275	1316.323975	1736.793335	1412.481445	22.869080
846.762512	1318.308838	1724.553223	1405.424072	21.444046
847.067749	1316.654785	1716.392822	1400.902954	21.075846
847.372925	1315.110840	1705.365479	1395.389160	20.570753
847.677979	1313.125977	1699.410889	1392.852905	20.639410
847.983032	1314.669922	1687.391235	1383.920898	18.579828
848.288025	1310.369263	1681.767456	1381.605225	19.180481
848.592957	1309.045898	1679.782349	1376.201782	18.114183
848.897888	1312.905518	1675.812744	1374.216919	16.894510
849.202759	1312.133667	1675.151001	1371.570313	16.372950
849.507507	1308.715210	1670.739990	1370.688110	17.118414
849.812317	1308.825439	1668.093506	1366.497803	16.052738
850.117004	1308.163818	1667.211182	1369.144409	16.983995
850.421631	1305.958374	1663.682617	1365.836182	16.738537
850.726257	1304.745361	1661.146240	1361.425293	15.903420
851.030823	1304.635010	1660.154053	1357.455444	14.857273
851.335327	1303.421875	1660.264282	1351.500732	13.473414
851.639771	1301.326782	1656.404785	1350.067261	13.726696
851.944153	1296.805664	1654.419800	1348.302979	14.400246
852.248535	1297.136353	1657.507446	1342.789307	12.668318
852.552856	1295.041260	1663.792725	1341.907104	12.709332
852.857056	1291.733032	1663.131104	1341.024902	13.271978
853.161255	1286.770874	1662.579834	1341.135254	14.465961
853.465393	1284.124268	1660.594727	1341.907227	15.348604
853.769531	1279.382568	1652.765381	1341.686523	16.686348
854.073547	1280.044189	1649.788086	1338.598999	15.836586
854.377563	1280.375000	1644.715576	1340.804443	16.585978
854.681580	1280.485474	1645.156616	1345.325562	17.780428
854.985474	1280.926392	1640.194336	1347.751465	18.600344
855.289307	1279.492920	1640.525269	1345.876953	18.387281
855.593140	1276.736084	1639.312134	1346.317993	19.190983
855.896851	1277.066895	1640.525269	1345.876953	18.932034
856.200623	1276.736084	1638.981445	1347.972046	19.665113
856.504272	1275.633423	1635.783691	1345.104858	19.289570
856.807922	1278.169678	1635.452759	1348.413086	19.660435
857.111389	1280.044312	1639.312256	1350.618530	19.643896
857.414978	1278.390259	1637.768555	1350.067383	19.944756
857.718445	1279.382568	1635.121826	1350.398071	19.962795
858.021790	1284.565308	1632.585693	1350.287720	18.884644
858.325195	1287.322144	1635.452881	1348.413208	17.548311
858.628479	1291.071655	1630.380371	1353.485718	18.394476
858.931763	1289.637817	1624.315308	1353.265259	19.011568
859.234985	1288.866089	1626.410522	1349.736572	18.033325
859.538147	1291.071533	1623.763916	1351.831665	18.263157
859.841248	1294.710571	1626.410522	1347.310425	15.857661
860.144287	1297.687866	1629.828857	1346.979614	14.840610
860.447266	1298.459717	1628.615723	1347.089966	14.729476
860.750305	1296.915894	1632.585571	1344.112549	14.060447
861.053223	1299.121338	1634.680786	1338.378296	11.698957
861.356018	1295.592651	1635.342407	1335.952271	11.879219
861.658813	1294.489746	1634.460205	1334.077637	11.644509
861.961609	1299.672607	1630.049316	1335.290771	10.781076
862.264343	1299.562256	1629.056885	1333.305786	10.240995
862.567017	1301.216309	1630.821289	1330.769775	8.966329
862.869629	1302.539673	1627.843994	1330.659302	8.644099
863.172180	1302.429443	1623.322754	1326.248413	7.422707
863.474670	1302.980713	1619.463135	1327.351318	7.700461
863.777161	1304.083496	1617.037231	1331.210693	8.668118
864.079590	1303.973267	1616.044800	1332.975220	9.293367
864.381958	1302.760254	1622.330322	1331.431274	8.971747
864.684265	1300.665161	1622.991943	1330.879883	9.373940
864.986511	1297.246704	1621.889160	1328.343628	9.578822
865.288757	1299.341797	1621.338013	1328.674438	9.109623
865.590942	1301.988281	1621.117432	1333.636963	9.917202
865.893066	1303.642578	1622.661133	1328.784790	7.881113
866.195068	1301.988403	1619.352905	1331.541626	9.312076
866.497131	1300.223999	1619.353027	1332.975220	10.262690
866.799133	1304.193848	1623.874023	1332.093140	8.727251
867.100952	1304.965698	1619.794067	1334.629272	9.422141
867.402832	1306.619751	1616.816650	1336.283447	9.562860
867.704651	1309.597168	1615.272827	1334.408813	8.116984
868.006409	1309.045898	1617.808960	1337.385986	9.178588
868.308105	1307.612305	1620.345459	1333.195679	8.180576
868.609802	1310.810303	1620.896973	1334.739502	7.716939
868.911438	1310.148682	1618.360474	1334.077759	7.763842
869.213013	1310.479370	1617.478394	1334.408691	7.794592
869.514465	1310.258911	1621.117432	1335.070313	7.981574
869.815979	1312.133545	1620.345459	1331.651855	6.332757
870.117371	1311.802734	1622.771362	1328.674438	5.425532
870.418701	1315.000610	1624.425537	1332.754639	5.737750
870.720093	1317.536987	1622.440674	1334.739624	5.641990
871.021301	1319.080811	1621.558350	1339.150513	6.635105
871.322571	1320.955322	1622.550781	1343.671631	7.532046
871.623718	1319.301392	1625.638550	1343.892212	8.027371
871.924805	1318.088379	1625.417969	1343.671631	8.324370
872.225891	1318.970581	1625.528442	1346.869385	9.100665
872.526917	1321.396484	1629.277588	1348.082397	8.667603
872.827881	1323.491699	1626.631104	1346.097534	7.457241
873.128784	1318.970459	1619.242920	1346.318115	9.107614
873.429626	1317.867798	1620.345581	1347.310547	9.733855
873.730408	1317.757568	1618.691406	1345.215454	9.124227
874.031189	1314.338989	1621.338013	1346.979736	10.632199
874.331848	1314.780151	1621.227661	1341.796875	8.816101
874.632568	1311.692627	1620.786499	1347.861938	11.701724
874.933167	1311.251343	1620.896973	1346.207642	11.289130
875.233704	1309.156250	1623.102295	1349.626099	12.890702
875.534241	1308.494629	1626.630981	1354.037109	14.315396
875.834717	1307.171509	1627.513184	1358.668579	16.075670
876.135071	1303.752930	1634.570679	1362.087036	17.633307
876.435425	1302.539917	1634.019165	1360.102173	17.365267
876.735779	1304.635132	1635.893799	1357.235107	15.878822
877.036011	1298.901001	1636.004150	1361.535767	18.580297
877.336182	1297.246948	1638.650635	1364.623291	19.735096
877.636353	1294.931152	1645.928589	1366.056885	20.263889
877.936462	1294.931030	1651.001099	1368.262329	20.594625
878.236511	1297.908447	1661.366821	1368.262329	19.356792
878.536560	1297.798218	1679.782349	1378.848511	21.218235
878.836487	1297.246826	1703.049805	1391.088867	23.125025
879.136414	1294.379639	1762.486816	1417.443848	26.289751
879.436279	1291.843506	1852.138428	1453.392700	28.832886
879.736084	1293.276855	1963.513550	1498.053101	30.552826
880.035828	1290.961182	2086.908691	1554.733032	33.139351
880.335510	1293.938477	2202.694824	1605.789307	34.316219
880.635193	1293.276855	2303.594238	1653.868164	35.690895
880.934753	1297.797852	2393.576904	1693.345581	36.097397
881.234314	1296.474854	2473.193359	1727.089111	36.594501
881.533752	1298.569946	2539.467529	1758.516968	37.065670
881.833252	1297.798096	2600.889404	1779.468750	36.963692
882.132629	1298.570068	2658.892822	1797.553589	36.681259
882.431946	1298.680298	2704.766113	1813.101929	36.585365
882.731323	1299.893433	2746.559326	1831.627563	36.755836
883.030579	1298.459839	2780.192627	1847.727295	37.069263
883.329712	1298.018677	2813.053955	1856.328735	36.851292
883.628845	1298.790527	2833.675049	1863.496338	36.791420
883.927979	1298.900879	2847.128174	1866.583862	36.666645
884.226990	1299.452148	2858.045166	1871.987183	36.734097
884.526001	1296.144043	2861.684082	1877.280518	37.120510
884.824951	1296.695435	2855.398682	1870.553955	36.816406
885.123840	1295.702881	2838.306396	1861.732300	36.693123
885.422729	1297.687744	2793.645996	1838.354370	36.141827
885.721497	1300.223999	2709.948975	1807.367798	35.974663
886.020203	1301.216553	2605.962158	1765.794800	35.606808
886.318909	1302.760376	2484.331299	1710.989258	34.549671
886.617554	1302.980835	2367.773193	1662.028442	33.719963
886.916138	1302.980957	2268.858643	1614.500977	32.252533
887.214661	1300.554932	2181.522705	1573.259155	30.955074
887.513184	1301.106323	2099.369629	1541.390259	30.100838
887.811523	1298.018677	2028.905518	1504.779785	28.289072
888.109924	1303.752808	1794.686401	1426.486206	25.000000
888.408264	1292.174194	1871.105347	1389.434570	16.799990
888.706543	1294.489868	1690.478760	1428.801880	33.918125
889.004761	1331.541504	1743.740479	1426.486206	23.033707
889.302979	1313.015747	1655.742920	1373.224609	17.567577
889.601135	1329.225830	1637.217163	1389.434570	19.548841
889.899170	1282.911255	1678.900146	1292.174194	2.339192
890.197205	1313.015747	1667.321533	1375.540283	17.647055
890.495178	1299.121338	1597.849854	1363.961670	21.705439
890.793091	1271.332642	1570.061157	1245.859741	-8.527107
>>>>>End Processed Spectral Data<<<<<
