Jaz Data File
++++++++++++++++++++++++++++++++++++
Date: Thu Sep 26 04:30:44 2019
User: jaz
Dark Spectrum Present: Yes
Reference Spectrum Present: Yes
Processed Spectrum Present: Yes
Spectrometers: JAZA3541
Integration Time (usec): 100000 (JAZA3541)
Spectra Averaged: 1 (JAZA3541)
Boxcar Smoothing: 10 (JAZA3541)
Correct for Electrical Dark: No (JAZA3541)
Strobe/Lamp Enabled: Yes (JAZA3541)
Correct for Detector Non-linearity: No (JAZA3541)
Correct for Stray Light: No (JAZA3541)
Number of Pixels in Processed Spectrum: 2048
>>>>>Begin Processed Spectral Data<<<<<
W	D	R	S	P
190.543274	0.000000	0.000000	0.000000	0.000000
190.921555	0.000000	0.000000	0.000000	0.000000
191.299805	1296.805664	1336.172974	1264.385498	-82.353012
191.678024	1229.649658	1322.278564	1167.125122	-67.500023
192.056229	1345.435913	1313.015747	1234.281128	342.856934
192.434387	1331.541504	1278.279907	1157.862183	326.087341
192.812531	1303.752808	1324.594360	1234.281128	-333.332550
193.190659	1310.699951	1296.805664	1197.229492	816.669861
193.568741	1319.962891	1359.330200	1201.860962	-300.000000
193.946793	0.000000	0.000000	0.000000	0.000000
194.324829	1207.815674	1211.785522	1088.170044	-3013.858643
194.702835	1271.994385	1273.317627	1145.070679	-9591.873047
195.080811	1337.606445	1335.070313	1202.081665	5343.757324
195.458755	1337.827148	1332.203125	1199.324829	2462.690918
195.836685	1338.268188	1331.541626	1204.066284	1995.103760
196.214569	1339.811890	1336.172974	1201.309692	3806.138916
196.592422	1341.907104	1340.032471	1206.161621	7241.173340
196.970261	1342.679077	1342.127686	1207.595093	24498.738281
197.348068	1343.781860	1343.120117	1211.675171	19963.439453
197.725861	1344.222900	1342.127563	1216.086182	6115.327637
198.103622	1343.561279	1338.157837	1219.835449	2289.759521
198.481323	1340.253052	1337.496216	1221.268921	4315.967285
198.859039	1337.937378	1335.290771	1220.497070	4437.392090
199.236694	1335.070313	1335.621460	1221.710083	-20568.039063
199.614334	1333.416138	1335.511230	1224.466919	-5200.209961
199.991959	1329.115479	1337.937134	1226.010742	-1168.768555
200.369553	1324.373657	1337.826904	1225.018188	-738.524048
200.747101	1322.499023	1341.355835	1227.003174	-506.426270
201.124619	1320.514038	1341.576294	1230.752441	-426.172760
201.502136	1316.323608	1346.538452	1232.627075	-277.004700
201.879623	1313.677246	1349.736450	1233.288574	-222.935242
202.257065	1311.030640	1351.500854	1232.075562	-195.094284
202.634476	1309.927979	1352.934570	1230.752319	-184.101212
203.011871	1305.186279	1354.809082	1232.516724	-146.443878
203.389221	1303.091064	1361.866455	1232.957886	-119.324051
203.766571	1304.745117	1367.931519	1226.010742	-124.606522
204.143875	1300.334229	1365.064331	1229.098267	-110.050751
204.521164	1296.254272	1365.284912	1222.040894	-107.507881
204.898392	1297.798096	1363.300049	1218.953247	-120.370224
205.275620	1298.459717	1368.703369	1218.070923	-114.442787
205.652817	1293.718018	1368.482910	1216.085938	-103.834938
206.029984	1293.607666	1372.673218	1209.469604	-106.415573
206.407135	1291.953613	1374.988892	1209.359253	-99.469002
206.784225	1292.394775	1374.437378	1205.940796	-105.376938
207.161301	1293.607910	1372.893555	1203.073853	-114.187202
207.538376	1298.570190	1373.555176	1201.640381	-129.265625
207.915405	1302.209229	1370.798462	1201.529907	-146.785904
208.292404	1303.422119	1370.798584	1205.720337	-145.008774
208.669373	1305.406860	1366.718506	1206.712769	-160.971207
209.046310	1302.319336	1363.961670	1205.279175	-157.424545
209.423218	1303.863159	1361.645874	1206.161499	-169.084579
209.800095	1305.737793	1357.124756	1205.499878	-195.064880
210.176956	1308.715210	1353.265137	1207.264282	-227.724121
210.553787	1308.163818	1355.911743	1210.241577	-205.081665
210.930603	1309.597412	1356.242554	1208.036133	-217.731735
211.307358	1315.221313	1353.485718	1207.815674	-280.693359
211.684113	1317.316406	1349.846680	1214.983398	-314.577759
212.060837	1316.985596	1348.413086	1213.990845	-327.721832
212.437531	1316.765015	1350.839233	1217.740234	-290.614960
212.814178	1314.008179	1354.037109	1218.953247	-237.465576
213.190826	1312.574585	1351.280273	1217.519653	-245.583878
213.567413	1313.125977	1352.383057	1215.644897	-248.314651
213.943985	1310.258789	1357.345337	1219.835327	-192.036713
214.320541	1309.266479	1357.124756	1216.527222	-193.778931
214.697052	1307.612305	1361.315186	1219.945679	-163.243805
215.073563	1309.266357	1363.300049	1220.827881	-163.672836
215.449997	1303.863159	1360.874023	1221.489502	-144.487656
215.826431	1301.326904	1362.086914	1216.196411	-140.109421
216.202850	1300.334351	1364.954102	1215.314209	-131.569901
216.579224	1298.459717	1369.695923	1214.321655	-118.111374
216.955582	1300.885742	1374.989014	1210.021118	-122.618912
217.331894	1300.554932	1374.217041	1210.572510	-122.155640
217.708191	1300.003418	1376.863647	1211.234131	-115.494431
218.084442	1300.113770	1383.480103	1212.998535	-104.496902
218.460678	1296.915771	1384.141602	1213.549805	-95.574860
218.836899	1295.041260	1385.685303	1213.990845	-89.416153
219.213074	1292.615234	1387.339478	1214.321655	-82.654213
219.589233	1294.269287	1392.191650	1211.123657	-84.909744
219.965347	1296.805542	1398.697510	1211.344238	-83.874428
220.341431	1295.592529	1399.359131	1215.093506	-77.577003
220.717499	1296.254150	1400.241455	1215.865479	-77.306236
221.093552	1295.041260	1402.336548	1215.203735	-74.409164
221.469543	1299.011108	1407.078247	1215.865479	-76.938866
221.845535	1302.980835	1407.409058	1214.542236	-84.688408
222.221466	1305.296631	1411.709595	1216.306641	-83.627022
222.597397	1305.186279	1417.884766	1215.093506	-79.941422
222.973297	1302.760376	1426.706543	1215.424438	-70.462799
223.349167	1300.554932	1437.403076	1219.504517	-59.226536
223.725006	1297.467285	1446.996826	1223.915405	-49.188862
224.100800	1295.041260	1454.385010	1229.098267	-41.384109
224.476578	1295.372070	1465.081543	1231.413940	-37.686836
224.852325	1297.577515	1475.778076	1238.471436	-33.168289
225.228058	1298.680298	1495.847778	1239.905029	-29.809818
225.603760	1297.577637	1523.195313	1242.772095	-24.291334
225.979416	1295.261963	1552.086792	1245.749390	-19.278732
226.355057	1295.372192	1590.351318	1250.270630	-15.289747
226.730652	1296.805664	1642.069214	1257.989746	-11.242402
227.106232	1296.915894	1691.912231	1263.503418	-8.458933
227.481796	1294.159180	1736.903687	1268.355347	-5.828154
227.857315	1292.946167	1778.145630	1273.868896	-3.931841
228.232788	1296.033813	1815.638184	1277.508057	-3.565358
228.608246	1296.695435	1848.058350	1278.169678	-3.359993
228.983704	1297.026245	1883.345459	1285.998901	-1.880775
229.359100	1297.577637	1916.206665	1291.953735	-0.909091
229.734482	1293.166748	1945.870117	1297.798096	0.709564
230.109833	1290.189453	1973.768921	1302.429565	1.790591
230.485153	1290.189331	1989.979126	1307.943237	2.537034
230.860443	1289.527710	2012.585205	1315.772461	3.629691
231.235703	1293.166748	2031.331421	1315.552002	3.032556
231.610931	1293.607788	2055.481445	1321.506714	3.661884
231.986145	1293.056396	2079.300049	1322.940186	3.800831
232.361313	1290.189209	2098.708252	1325.586914	4.378092
232.736465	1287.983765	2121.313965	1327.792358	4.777049
233.111572	1285.888550	2134.656982	1327.681885	4.923997
233.486664	1288.865845	2141.052734	1330.769531	4.917194
233.861725	1290.409668	2141.604248	1333.305908	5.039534
234.236755	1292.284302	2138.957520	1338.047607	5.405073
234.611771	1296.474731	2120.873047	1342.127808	5.537745
234.986740	1298.900635	2101.023926	1344.553711	5.691528
235.361679	1299.782959	2083.710938	1349.515991	6.344082
235.736588	1298.570068	2073.235107	1353.926758	7.145887
236.111496	1297.908447	2069.375488	1359.550659	7.990259
236.486343	1298.459717	2071.139893	1369.475098	9.190786
236.861160	1301.106323	2071.250000	1372.121704	9.221056
237.235962	1300.334351	2079.961426	1383.369385	10.650609
237.610733	1302.760376	2089.996338	1393.404419	11.514215
237.985474	1301.437134	2106.978271	1403.549438	12.676237
238.360199	1300.665283	2140.501221	1417.774536	13.944302
238.734879	1301.767944	2177.662842	1432.551270	14.931395
239.109543	1300.334473	2227.616455	1454.936523	16.672604
239.484177	1304.635132	2281.650146	1481.071167	18.058681
239.858749	1310.810303	2350.680908	1512.719482	19.416759
240.233322	1311.361694	2434.047119	1548.557983	21.127583
240.607864	1313.126099	2511.899414	1585.940430	22.757792
240.982391	1314.559570	2592.618896	1628.946655	24.598787
241.356857	1316.213745	2651.063232	1664.564941	26.096664
241.731308	1315.000610	2704.435059	1690.699463	27.039696
242.105728	1317.977905	2744.684814	1713.966919	27.755457
242.480118	1312.354126	2785.926758	1735.580200	28.721087
242.854492	1310.479492	2835.880127	1761.273682	29.552511
243.228836	1309.045898	2893.442383	1790.054688	30.359118
243.603134	1312.905518	2957.290283	1824.018799	31.082340
243.977402	1312.023193	3046.721436	1866.584106	31.968725
244.351654	1310.920532	3168.241699	1921.058594	32.850433
244.725861	1310.810303	3315.235107	1993.618164	34.065029
245.100067	1311.912964	3466.970215	2062.648926	34.836014
245.474213	1311.361694	3603.377197	2127.709717	35.617035
245.848343	1316.985474	3710.341553	2186.926025	36.348148
246.222443	1318.198486	3794.700195	2232.689209	36.926716
246.596512	1318.419067	3855.019287	2264.668457	37.303844
246.970566	1321.286133	3892.181641	2291.354248	37.732693
247.344574	1320.845093	3904.862793	2301.278564	37.942215
247.718567	1317.206055	3891.740234	2308.225830	38.493168
248.092529	1318.749756	3859.430420	2308.336182	38.949657
248.466431	1315.441650	3833.075195	2302.491699	39.205471
248.840332	1313.236206	3807.051025	2299.404053	39.544548
249.214203	1311.030640	3809.476563	2294.552002	39.365326
249.588043	1313.787598	3825.797363	2306.902588	39.534679
249.961838	1310.038330	3853.696045	2321.237793	39.753754
250.335617	1313.677124	3886.888428	2339.432861	39.862862
250.709381	1313.456665	3901.664795	2352.003906	40.126110
251.083084	1318.198608	3899.569824	2356.525391	40.223846
251.456787	1314.780029	3882.367188	2348.916504	40.276588
251.830460	1316.434204	3829.656738	2329.397949	40.305370
252.204071	1313.456787	3746.069824	2295.213623	40.358116
252.577667	1310.038452	3638.995117	2240.518311	39.952652
252.951248	1310.369263	3513.615234	2188.580078	39.859859
253.324799	1308.604858	3406.099365	2141.824463	39.724518
253.698303	1305.737671	3326.152100	2104.883057	39.553539
254.071793	1305.296631	3267.817627	2075.330078	39.236954
254.445236	1304.083618	3233.853760	2056.363281	38.982864
254.818665	1300.113770	3219.959473	2044.122925	38.753590
255.192062	1300.003418	3219.077393	2043.350952	38.734699
255.565430	1300.444458	3243.888672	2045.335693	38.328407
255.938782	1301.878052	3283.365967	2055.039795	38.009907
256.312103	1304.745117	3340.266846	2076.102051	37.894802
256.685364	1306.730225	3419.442383	2099.038574	37.501953
257.058594	1304.965820	3518.357178	2141.714355	37.803913
257.431793	1302.098633	3646.714600	2185.712891	37.686951
257.804993	1302.760254	3790.178955	2234.122803	37.442936
258.178162	1299.672729	3928.240234	2286.061279	37.525707
258.551270	1298.128906	4052.517578	2325.869629	37.312843
258.924377	1294.379639	4145.587402	2356.525391	37.252483
259.297485	1293.938599	4222.999023	2384.865234	37.244934
259.670502	1293.056396	4286.625977	2403.280762	37.086975
260.043518	1295.151489	4346.063477	2423.350342	36.979069
260.416473	1298.569946	4394.473145	2441.545166	36.918957
260.789459	1297.026123	4449.830078	2455.990967	36.759811
261.162354	1297.246704	4497.467773	2469.333984	36.625195
261.535278	1298.349365	4541.796875	2480.140625	36.436268
261.908142	1298.790527	4576.092285	2491.719238	36.399723
262.280975	1301.216553	4595.279297	2496.791992	36.294861
262.653717	1302.870605	4609.834961	2498.997314	36.169930
263.026520	1300.113892	4627.809570	2500.320801	36.067207
263.399261	1297.357056	4643.688477	2504.952393	36.087139
263.771973	1296.915894	4654.495605	2505.173096	35.985958
264.144653	1298.239258	4653.502930	2496.020752	35.698582
264.517334	1301.106323	4633.103027	2484.993164	35.530853
264.889954	1302.208862	4586.678223	2460.843262	35.276154
265.262543	1305.627563	4506.179199	2422.909668	34.909046
265.635071	1308.053589	4405.610840	2377.256592	34.517620
266.007599	1311.802856	4310.224609	2324.105225	33.761173
266.380127	1312.133545	4240.201660	2291.243896	33.438782
266.752594	1315.882935	4205.575684	2269.299561	32.993702
267.125031	1315.000732	4197.084473	2251.766113	32.503059
267.497437	1313.236328	4212.963867	2246.583252	32.187401
267.869843	1316.544556	4239.098633	2249.009277	31.905815
268.242218	1313.567261	4277.473633	2256.397705	31.810400
268.614532	1311.913208	4335.697754	2269.961426	31.683744
268.986816	1312.354126	4430.973633	2293.008301	31.445135
269.359100	1311.471924	4539.150879	2325.097412	31.404161
269.731354	1310.038452	4652.510742	2350.570557	31.130613
270.103516	1311.030762	4749.219727	2378.579590	31.049744
270.475708	1311.361572	4830.049805	2401.295654	30.975580
270.847839	1314.890381	4902.499023	2419.821533	30.798542
271.219971	1318.419067	4961.053711	2427.981689	30.460442
271.592041	1320.403809	5006.596191	2432.723389	30.175299
271.964081	1321.065552	5036.369629	2441.324707	30.152555
272.336151	1316.434204	5064.048340	2438.347168	29.936726
272.708130	1316.654785	5090.182129	2432.723633	29.576275
273.080109	1313.015869	5107.385254	2433.495605	29.530066
273.452026	1311.582275	5141.238770	2437.465332	29.399061
273.823914	1310.369263	5176.085449	2444.191895	29.330208
274.195770	1310.369263	5215.893555	2450.036377	29.180899
274.567627	1309.376831	5261.987793	2459.960938	29.109470
274.939423	1310.700073	5304.332031	2470.988037	29.053453
275.311249	1312.243896	5345.464355	2482.566895	29.017084
275.682983	1310.479492	5376.120117	2487.860107	28.959290
276.054688	1309.707520	5401.151855	2486.978027	28.773958
276.426422	1307.943115	5403.577148	2478.928223	28.591059
276.798065	1312.243896	5370.495117	2464.592529	28.395203
277.169708	1313.236206	5325.172852	2441.214844	28.115566
277.541321	1317.757446	5277.536133	2425.004883	27.962357
277.912903	1316.985352	5267.832031	2415.521240	27.805075
278.284424	1316.764893	5279.741211	2414.638916	27.703270
278.655945	1315.882813	5301.685547	2418.829346	27.671879
279.027435	1312.574707	5332.010254	2432.392822	27.860085
279.398865	1310.920532	5391.226563	2450.477295	27.928217
279.770294	1307.502075	5467.424805	2464.923096	27.823137
280.141663	1310.810303	5539.763672	2490.396240	27.893095
280.513031	1313.015869	5615.631348	2517.964355	28.005026
280.884369	1315.993164	5680.912598	2541.342285	28.072662
281.255676	1314.559570	5725.462402	2562.404297	28.290007
281.626953	1313.787720	5763.727051	2576.629395	28.378851
281.998199	1316.654907	5805.189453	2591.075195	28.392792
282.369385	1313.346680	5856.245605	2608.387939	28.506935
282.740540	1313.236328	5915.572754	2628.567627	28.579643
283.111694	1311.802856	5983.280273	2652.166016	28.692488
283.482819	1310.479492	6070.064941	2677.087891	28.712761
283.853912	1314.559570	6165.339844	2715.462402	28.879948
284.224945	1315.441772	6257.858398	2750.639404	29.038380
284.595978	1313.346436	6348.502930	2785.485596	29.237209
284.966980	1311.030762	6425.914551	2824.081055	29.581324
285.337952	1309.817749	6500.238281	2858.706543	29.841297
285.708893	1306.730103	6535.746094	2890.685791	30.291658
286.079803	1305.406860	6558.352051	2912.299316	30.590313
286.450684	1304.745239	6574.893066	2935.787354	30.948696
286.821533	1307.391846	6588.677246	2954.092529	31.179924
287.192322	1306.399414	6596.506836	2978.903809	31.615698
287.563110	1307.391968	6602.571289	3013.418945	32.218494
287.933868	1303.642700	6627.272461	3047.272705	32.752651
288.304596	1299.672852	6668.735352	3093.366455	33.407948
288.675262	1300.885742	6725.304199	3140.673340	33.916771
289.045929	1301.326782	6777.683594	3184.782715	34.392498
289.416565	1300.113770	6826.645020	3231.648438	34.950218
289.787170	1296.805664	6843.957520	3267.707275	35.529976
290.157745	1293.718018	6845.170898	3302.112305	36.177811
290.528259	1293.497437	6840.870605	3336.517578	36.828606
290.898773	1294.820801	6830.614746	3370.261230	37.491287
291.269226	1294.269287	6813.852539	3407.864258	38.292656
291.639679	1290.630371	6797.202148	3442.600098	39.080029
292.010101	1294.820801	6810.876465	3488.252930	39.764503
292.380463	1293.828369	6840.539551	3539.198975	40.481117
292.750824	1298.680298	6882.332031	3587.828857	40.997334
293.121155	1300.775391	6928.756836	3639.326660	41.552219
293.491455	1307.502197	6990.068359	3693.029053	41.979744
293.861725	1310.920532	7072.000977	3758.751465	42.489098
294.231964	1313.125977	7184.479004	3824.252930	42.769135
294.602142	1314.669678	7298.721680	3894.827393	43.117237
294.972321	1314.669800	7398.077148	3961.431885	43.507893
295.342468	1316.213623	7496.991699	4023.294922	43.798389
295.712555	1317.095825	7559.295410	4070.381592	44.107620
296.082672	1318.419067	7583.776855	4108.094727	44.525402
296.452728	1315.882813	7585.761719	4131.362793	44.904854
296.822693	1319.080688	7589.400879	4147.131836	45.102180
297.192657	1321.065552	7589.180664	4161.908203	45.322121
297.562622	1322.388916	7606.824219	4183.080566	45.520264
297.932556	1326.027954	7627.886230	4193.225586	45.497654
298.302460	1328.233398	7634.833496	4211.089844	45.711739
298.672333	1327.792358	7640.347656	4222.777832	45.860752
299.042145	1329.005127	7636.597656	4230.828125	46.005238
299.411957	1330.218140	7623.033691	4232.041016	46.113266
299.781677	1326.027954	7584.768555	4222.777832	46.283272
300.151428	1326.579224	7523.125977	4207.009277	46.484440
300.521149	1326.248291	7458.727051	4186.058105	46.633835
300.890839	1322.829956	7386.829590	4156.394531	46.727650
301.260468	1317.095825	7310.961914	4120.666504	46.773998
301.630096	1318.418945	7223.515625	4078.321533	46.737637
301.999695	1319.080688	7102.436523	4033.109375	46.928268
302.369232	1316.323975	6976.063965	3977.973145	47.027763
302.738739	1314.449219	6859.727051	3922.064697	47.024075
303.108246	1310.699951	6722.106445	3860.091553	47.111443
303.477692	1311.251343	6610.841309	3805.285645	47.060890
303.847137	1311.361816	6522.182129	3752.796143	46.853168
304.216553	1311.361572	6456.680176	3716.186035	46.738110
304.585876	1310.369141	6397.794434	3688.838623	46.751930
304.955231	1309.597046	6350.267090	3666.122070	46.750233
305.324493	1306.619751	6311.010254	3645.391113	46.734390
305.693787	1306.178711	6280.244629	3634.915283	46.817566
306.063049	1306.509521	6274.399414	3617.492188	46.518398
306.432251	1307.391846	6272.414551	3609.001465	46.356480
306.801422	1305.627319	6267.783691	3597.863770	46.194359
307.170593	1304.524658	6268.334961	3595.768555	46.158970
307.539673	1303.642456	6275.171875	3594.334717	46.076214
307.908783	1304.304077	6290.831055	3589.593262	45.829273
308.277832	1302.650146	6307.150879	3591.137207	45.728577
308.646851	1300.444702	6338.357910	3605.142090	45.747063
309.015839	1303.973389	6378.717773	3617.161865	45.582367
309.384796	1298.239258	6410.586914	3634.474609	45.697895
309.753723	1295.151733	6446.205566	3646.935547	45.656361
310.122620	1294.600220	6472.339844	3657.631592	45.638279
310.491486	1296.144165	6484.690430	3662.262695	45.602726
310.860352	1299.342041	6501.231445	3665.681152	45.489990
311.229126	1299.452148	6515.456055	3673.510498	45.514889
311.597931	1298.680298	6523.726074	3674.282715	45.465679
311.966675	1300.224121	6544.016602	3680.347412	45.389351
312.335388	1300.665161	6579.523926	3688.066650	45.225708
312.704071	1298.680298	6617.236816	3696.226563	45.078892
313.072723	1301.326904	6632.564941	3702.843018	45.046124
313.441345	1301.988525	6630.139160	3702.733154	45.057751
313.809875	1302.650146	6611.061523	3694.683350	45.061188
314.178436	1298.459839	6573.018066	3675.716553	45.070255
314.546967	1304.193970	6535.194824	3654.764893	44.935390
314.915466	1304.635132	6494.283691	3624.770508	44.706982
315.283936	1308.604858	6440.911621	3600.510498	44.656445
315.652374	1309.266602	6398.125977	3577.683838	44.576141
316.020752	1307.943237	6345.084961	3545.704590	44.425220
316.389130	1313.236328	6299.542480	3517.033936	44.196999
316.757416	1313.346680	6259.072266	3494.538330	44.102562
317.125732	1312.574585	6233.378418	3474.248047	43.929276
317.494019	1313.126099	6201.399414	3454.509277	43.806538
317.862274	1315.441895	6169.530762	3437.416992	43.715210
318.230469	1314.338989	6137.441406	3416.465820	43.584538
318.598663	1315.441772	6109.211914	3403.673828	43.561371
318.966797	1315.221069	6076.571289	3386.250732	43.496693
319.334930	1314.449341	6049.113281	3368.386475	43.380840
319.703003	1310.148682	6018.347656	3344.567383	43.210125
320.071045	1307.612305	5975.341309	3327.144287	43.265835
320.439056	1306.178711	5939.722656	3312.698975	43.304226
320.807037	1306.399292	5937.627441	3295.826904	42.956806
321.175049	1305.296631	5958.910156	3288.328857	42.612743
321.542969	1301.878052	5990.778809	3293.069824	42.466068
321.910828	1306.178711	6035.219238	3308.507813	42.341129
322.278717	1304.965820	6093.112305	3320.858887	42.101742
322.646515	1308.053345	6142.183594	3345.449707	42.146080
323.014313	1307.501953	6192.908691	3352.066162	41.850441
323.382111	1304.855469	6229.739746	3363.644775	41.803810
323.749817	1304.745117	6278.259766	3374.341064	41.612343
324.117523	1303.752808	6305.828125	3388.014893	41.667950
324.485199	1301.326782	6320.052734	3391.985107	41.657150
324.852814	1304.193970	6319.501465	3385.809570	41.505245
325.220428	1306.399292	6317.957520	3375.664551	41.289856
325.588013	1305.075928	6324.794434	3372.466553	41.185387
325.955536	1308.384155	6334.498535	3371.805176	41.054001
326.323059	1308.825317	6352.804199	3369.269043	40.849571
326.690552	1309.597168	6376.622070	3371.032715	40.683350
327.058014	1311.030640	6396.030273	3370.371338	40.498348
327.425415	1314.338989	6409.152344	3382.169922	40.586983
327.792816	1317.977905	6423.708984	3381.177734	40.409489
328.160187	1320.955322	6430.545410	3379.193115	40.281860
328.527496	1321.837646	6416.541504	3377.869873	40.356262
328.894775	1322.940430	6410.255859	3371.583984	40.269638
329.262054	1325.697144	6391.839844	3367.283447	40.298634
329.629303	1323.712280	6378.275879	3357.138428	40.229511
329.996490	1321.837646	6364.161621	3357.469482	40.370903
330.363647	1317.977905	6370.558105	3347.324463	40.164558
330.730774	1316.985718	6381.474609	3353.610596	40.213829
331.097839	1316.544434	6412.020020	3355.374268	40.012554
331.464935	1316.103394	6438.044434	3368.166016	40.064159
331.831970	1312.353882	6459.437500	3367.725098	39.932732
332.198975	1311.802490	6487.336426	3377.318848	39.909241
332.565948	1311.582153	6516.007324	3384.045654	39.821175
332.932892	1304.965698	6553.610352	3396.395752	39.847054
333.299744	1305.406860	6581.950195	3405.548340	39.801464
333.666656	1301.878174	6619.553711	3418.780762	39.808792
334.033478	1300.444702	6650.540039	3427.823730	39.763386
334.400299	1300.665283	6674.027344	3434.660400	39.714336
334.767090	1298.570068	6710.527344	3454.950195	39.844738
335.133850	1299.562622	6735.669434	3457.596680	39.698154
335.500549	1296.805786	6758.166016	3463.000488	39.664017
335.867218	1291.622803	6781.985352	3465.205811	39.589062
336.233917	1292.725586	6818.154785	3470.719238	39.417637
336.600525	1292.505005	6834.694824	3477.445801	39.423782
336.967102	1293.938599	6855.757324	3481.415527	39.330246
337.333649	1296.915894	6867.004395	3479.430908	39.182774
337.700195	1294.269287	6866.563965	3474.358643	39.123726
338.066681	1296.254150	6856.970215	3471.160400	39.111984
338.433136	1295.813110	6847.266602	3461.015625	39.002445
338.799591	1296.254272	6825.983398	3450.539795	38.958248
339.165985	1296.584961	6811.758789	3439.953613	38.863121
339.532318	1300.775391	6816.390625	3436.865723	38.728050
339.898651	1300.995972	6828.851074	3435.983154	38.622345
340.264954	1300.444580	6846.163574	3441.938232	38.615257
340.631226	1305.627319	6861.712891	3449.547363	38.586880
340.997467	1305.406860	6901.410645	3456.053467	38.431828
341.363678	1306.840454	6942.652344	3467.632080	38.340374
341.729828	1308.274048	6995.914551	3481.195313	38.204266
342.095947	1305.627563	7056.674316	3506.888672	38.275837
342.462067	1306.178833	7114.677734	3521.445313	38.138367
342.828156	1305.076050	7183.377441	3543.499512	38.079426
343.194183	1304.414551	7254.171875	3569.965088	38.078033
343.560211	1309.597290	7313.718750	3591.799072	38.010582
343.926178	1311.582275	7371.282227	3611.758301	37.958576
344.292114	1310.259155	7404.143066	3629.071045	38.051464
344.658020	1307.502197	7440.643066	3640.649658	38.041641
345.023926	1307.943237	7478.025391	3651.125488	37.976517
345.389771	1309.817871	7515.187500	3659.615967	37.867172
345.755585	1307.061157	7535.036621	3671.525635	37.965214
346.121368	1309.376953	7556.099121	3680.457520	37.957195
346.487122	1309.707642	7582.233398	3693.139160	37.997955
346.852844	1309.597412	7608.037109	3699.424561	37.943165
347.218536	1308.163818	7628.216309	3705.379395	37.930309
347.584167	1309.487061	7650.822266	3708.798096	37.836056
347.949768	1309.487061	7669.127930	3716.296387	37.845051
348.315369	1310.259033	7693.718750	3727.433350	37.866211
348.680939	1312.684937	7708.384766	3735.924561	37.888580
349.046448	1312.464478	7717.426270	3741.548340	37.925034
349.411957	1310.810303	7721.727051	3743.643555	37.948288
349.777435	1313.677490	7716.654785	3742.100098	37.926456
350.142792	1315.772705	7705.848145	3744.636475	38.009941
350.508209	1317.757568	7707.170898	3742.651367	37.951744
350.873566	1320.734985	7710.369629	3740.776855	37.874496
351.238892	1324.153320	7723.822754	3748.496338	37.882317
351.604187	1317.647217	7751.722656	3764.044678	38.022518
351.969482	1319.521973	7817.224609	3786.540283	37.967548
352.334717	1317.647339	7876.330566	3810.799561	38.013000
352.699890	1318.308838	7959.255371	3840.462891	37.978836
353.065063	1317.647217	8043.062500	3873.434570	38.001926
353.430237	1317.095825	8157.305176	3907.397949	37.868755
353.795319	1313.456787	8287.425781	3952.720703	37.844505
354.160370	1313.897827	8413.466797	4000.909912	37.847542
354.525421	1315.441650	8548.000977	4060.346680	37.952057
354.890442	1315.993164	8704.146484	4124.194824	38.009521
355.255402	1310.589600	8870.106445	4199.621094	38.217148
355.620331	1311.912964	9055.035156	4272.400879	38.233772
355.985260	1311.913086	9232.242188	4338.785645	38.216499
356.350098	1310.699951	9388.499023	4398.002441	38.219601
356.714935	1313.015869	9533.837891	4450.711914	38.167667
357.079742	1313.456909	9660.432617	4505.407227	38.240799
357.444519	1311.361694	9805.770508	4556.243164	38.200199
357.809296	1311.030762	9967.540039	4606.307129	38.067032
358.173981	1309.266479	10156.877930	4678.866211	38.084850
358.538605	1307.171265	10367.388672	4760.247559	38.112507
358.903259	1303.091187	10606.127930	4841.187500	38.031624
359.267914	1305.958008	10871.113281	4934.257324	37.932465
359.632477	1302.208740	11147.125000	5040.560059	37.972404
359.997009	1303.091064	11412.661133	5140.246582	37.955673
360.361542	1299.893188	11615.783203	5215.893555	37.960861
360.726013	1303.201416	11769.945313	5277.755859	37.973167
361.090485	1304.304321	11863.676758	5311.389648	37.948143
361.454895	1310.259033	11911.866211	5332.892578	37.943619
361.819244	1311.251343	11933.588867	5341.493164	37.941193
362.183594	1308.935791	11933.038086	5336.972656	37.914139
362.547913	1305.958374	11891.907227	5313.925781	37.861198
362.912201	1310.148682	11832.580078	5280.182129	37.729240
363.276489	1311.692383	11753.514648	5243.902344	37.658272
363.640686	1309.045898	11666.289063	5199.352539	37.561218
364.004883	1308.053467	11603.984375	5168.255371	37.492500
364.369049	1307.502075	11540.247070	5141.790527	37.470772
364.733154	1305.627319	11501.651367	5121.169434	37.421860
365.097198	1305.296631	11440.780273	5099.997559	37.439762
365.461273	1304.855469	11349.916992	5066.364258	37.446350
365.825287	1303.863037	11219.022461	5011.338379	37.391991
366.189270	1305.517212	11049.423828	4943.189941	37.332798
366.553223	1306.509644	10853.798828	4874.489746	37.371655
366.917114	1304.083740	10603.810547	4779.986328	37.376396
367.281006	1309.156250	10322.946289	4668.941895	37.273838
367.644867	1308.715088	10066.894531	4558.779297	37.108902
368.008698	1311.251465	9856.163086	4476.405273	37.041386
368.372498	1305.958374	9704.648438	4411.785645	36.979897
368.736237	1305.075928	9600.442383	4375.616211	37.015125
369.099976	1302.429565	9538.358398	4342.865723	36.916737
369.463654	1301.988525	9494.360352	4327.096191	36.925907
369.827332	1302.208862	9463.153320	4312.209961	36.882999
370.190948	1304.193848	9440.435547	4306.916504	36.905525
370.554535	1302.650146	9416.837891	4293.352539	36.857693
370.918091	1301.106445	9393.791016	4283.648926	36.854797
371.281647	1303.091309	9380.999023	4280.561523	36.859425
371.645111	1305.848267	9366.443359	4278.025391	36.872925
372.008575	1305.186523	9363.686523	4276.811523	36.875660
372.371979	1305.406982	9347.367188	4271.959961	36.888432
372.735382	1308.604858	9362.143555	4265.123535	36.710800
373.098724	1308.384155	9392.909180	4274.496094	36.688759
373.462067	1307.501953	9422.242188	4291.809082	36.776371
373.825348	1305.847900	9491.492188	4320.480469	36.828285
374.188599	1304.855347	9567.139648	4351.907715	36.879055
374.551819	1305.517090	9684.690430	4395.134277	36.872574
374.915009	1303.091187	9826.390625	4449.939941	36.920544
375.278168	1303.532227	9977.463867	4499.231934	36.842575
375.641266	1299.672729	10109.459961	4555.140137	36.952850
376.004395	1302.319214	10216.204102	4591.750488	36.902328
376.367462	1305.296631	10289.535156	4614.577148	36.834293
376.730469	1302.980957	10335.959961	4636.080566	36.899231
377.093475	1300.995972	10366.173828	4647.438477	36.915352
377.456421	1299.672852	10399.367188	4658.465332	36.911049
377.819336	1303.201538	10434.763672	4665.633301	36.822083
378.182281	1304.304199	10477.661133	4682.284180	36.823814
378.545135	1306.619873	10523.974609	4694.634766	36.756912
378.907928	1304.965820	10570.621094	4714.814941	36.800949
379.270752	1303.752808	10610.319336	4725.731934	36.769512
379.633484	1304.304077	10644.283203	4727.496094	36.650959
379.996246	1308.604858	10675.931641	4738.082031	36.611053
380.358948	1305.737671	10694.016602	4752.638184	36.714931
380.721558	1306.509521	10717.394531	4765.650879	36.756813
381.084198	1307.281494	10758.856445	4773.811035	36.676739
381.446747	1309.156006	10778.814453	4780.316895	36.655609
381.809326	1310.589722	10797.670898	4777.229492	36.540634
382.171875	1312.574707	10791.716797	4770.833496	36.482822
382.534363	1312.354126	10755.877930	4750.764160	36.410248
382.896790	1311.361572	10704.710938	4744.809082	36.551899
383.259247	1315.441772	10669.204102	4725.291016	36.454304
383.621613	1316.544556	10660.161133	4717.681152	36.400646
383.983948	1316.765015	10687.950195	4723.967285	36.358284
384.346283	1317.647217	10738.124023	4734.332520	36.268711
384.708588	1315.772705	10823.144531	4758.261719	36.208630
385.070831	1320.073242	10899.012695	4783.735352	36.159142
385.433075	1315.662354	10992.963867	4820.896484	36.221191
385.795258	1316.765015	11075.448242	4850.008789	36.206150
386.157440	1312.133667	11151.536133	4875.592285	36.216209
386.519531	1312.795288	11244.496094	4897.646484	36.095036
386.881622	1310.810303	11316.504883	4924.663086	36.117962
387.243683	1310.700073	11391.710938	4966.015625	36.259415
387.605713	1307.391724	11473.091797	4993.474121	36.259995
387.967682	1309.817749	11555.907227	5016.961914	36.181061
388.329651	1307.832886	11652.283203	5043.868652	36.116329
388.691559	1308.053345	11748.441406	5078.935059	36.118217
389.053467	1303.752686	11868.749023	5117.419922	36.097195
389.415314	1301.326782	11987.513672	5158.661621	36.096458
389.777130	1303.752808	12107.820313	5197.257324	36.037395
390.138885	1299.782959	12230.442383	5242.358398	36.068962
390.500641	1300.665039	12323.181641	5272.353027	36.032497
390.862366	1296.584961	12410.408203	5300.583008	36.027187
391.224060	1296.364502	12484.620117	5331.238281	36.063473
391.585693	1297.246704	12571.514648	5359.137695	36.027981
391.947296	1298.569946	12659.623047	5394.865723	36.055603
392.308868	1304.524658	12724.023438	5420.008301	36.039089
392.670441	1304.304077	12789.525391	5447.355957	36.072895
393.031952	1307.171265	12819.077148	5456.067383	36.040043
393.393433	1306.399414	12846.205078	5467.315430	36.057072
393.754883	1308.494507	12861.644531	5476.688477	36.078419
394.116302	1307.502075	12850.395508	5475.916504	36.112389
394.477692	1311.141113	12853.373047	5474.704102	36.072422
394.839020	1310.589722	12852.491211	5459.596191	35.947338
395.200348	1310.589722	12851.718750	5454.413574	35.904839
395.561646	1308.825317	12834.958008	5452.759766	35.952515
395.922882	1312.574585	12799.230469	5441.401367	35.944550
396.284088	1313.787476	12739.682617	5417.913574	35.919514
396.645264	1316.103271	12662.161133	5386.927246	35.878754
397.006409	1316.985474	12567.545898	5354.506836	35.887291
397.367523	1312.905396	12464.992188	5320.432617	35.935223
397.728577	1317.426514	12368.834961	5276.985352	35.828545
398.089600	1319.080688	12297.267578	5255.040527	35.852551
398.450592	1319.631958	12241.248047	5238.168945	35.878731
398.811584	1319.631958	12182.804688	5214.570313	35.854519
399.172546	1317.536865	12098.225586	5193.838867	35.955978
399.533447	1316.323853	12017.835938	5155.905273	35.878872
399.894318	1310.479492	11962.148438	5124.587402	35.807610
400.255127	1308.935791	11911.533203	5100.107422	35.757008
400.615936	1307.502197	11882.752930	5087.094727	35.739979
400.976685	1307.171387	11886.833008	5087.425781	35.731335
401.337433	1305.517212	11916.826172	5094.704102	35.708950
401.698151	1304.745483	11971.852539	5119.735352	35.764050
402.058807	1301.657715	12056.542969	5149.950195	35.781811
402.419434	1299.672729	12151.487305	5192.294434	35.870697
402.780060	1297.467285	12260.105469	5235.411621	35.921501
403.140594	1296.364624	12359.020508	5273.345215	35.949596
403.501129	1292.394775	12453.856445	5307.860352	35.976162
403.861633	1291.181763	12540.641602	5346.456543	36.048618
404.222076	1289.196777	12626.102539	5378.435059	36.070145
404.582550	1287.983765	12698.000000	5409.532227	36.122192
404.942932	1289.307007	12768.574219	5443.385742	36.187664
405.303284	1293.607666	12843.891602	5471.064453	36.167568
405.663605	1292.174316	12899.579102	5481.540039	36.092182
406.023895	1293.056396	12936.077148	5497.530273	36.111538
406.384125	1290.409912	12989.669922	5524.657227	36.192436
406.744354	1290.850952	13056.826172	5544.726563	36.154041
407.104553	1291.291992	13123.429688	5574.169434	36.196987
407.464691	1296.364624	13183.198242	5601.406738	36.216892
407.824829	1296.916016	13253.110352	5633.275391	36.268726
408.184906	1296.805664	13333.279297	5672.532227	36.353893
408.544922	1298.129028	13397.016602	5693.374023	36.327679
408.904938	1299.562500	13444.985352	5712.340820	36.332851
409.264923	1300.224121	13466.709961	5710.024902	36.245476
409.624847	1298.239258	13452.485352	5709.914551	36.297401
409.984802	1301.437256	13428.113281	5699.328125	36.266251
410.344666	1303.091187	13393.708008	5681.243164	36.211151
410.704529	1305.076050	13355.223633	5659.519531	36.136017
411.064331	1307.612305	13323.023438	5646.397461	36.110168
411.424133	1306.399414	13317.508789	5639.560547	36.076279
411.783875	1306.509644	13312.107422	5632.723633	36.034973
412.143555	1310.369263	13321.479492	5635.039551	36.005585
412.503235	1308.274048	13338.792969	5638.126953	35.990578
412.862885	1304.635010	13348.716797	5646.287109	36.048016
413.222473	1305.406860	13404.625000	5664.371582	36.026833
413.582062	1303.642578	13483.800781	5693.594238	36.041828
413.941559	1302.870605	13553.383789	5720.500488	36.060772
414.301086	1304.855591	13638.513672	5747.627441	36.021526
414.660522	1306.399414	13709.198242	5782.694336	36.091007
415.019958	1303.863037	13795.209961	5815.445313	36.117661
415.379364	1302.429688	13906.364258	5846.321289	36.051373
415.738708	1300.555054	14027.223633	5873.338379	35.930714
416.098053	1300.996216	14169.366211	5917.447754	35.874409
416.457336	1300.996094	14353.409180	5974.348633	35.804508
416.816559	1302.870728	14553.443359	6052.862305	35.847446
417.175812	1306.840454	14794.830078	6141.191406	35.841896
417.535004	1302.319336	15084.958008	6246.942871	35.875740
417.894135	1306.289063	15413.351563	6366.588379	35.870682
418.253265	1303.091187	15806.914063	6514.574219	35.931786
418.612335	1300.775513	16211.945313	6661.567871	35.951523
418.971405	1302.870728	16630.541016	6812.089355	35.942963
419.330414	1304.304077	17066.005859	6972.645996	35.962753
419.689423	1303.642334	17500.701172	7118.095215	35.898205
420.048370	1306.178711	17901.873047	7279.755371	35.994736
420.407257	1306.619751	18312.748047	7429.946289	36.006588
420.766144	1307.281372	18696.716797	7577.161621	36.055687
421.125000	1310.479370	19089.509766	7710.589844	35.998081
421.483795	1311.692383	19479.652344	7848.761230	35.981300
421.842560	1309.817749	19892.181641	8007.665039	36.044109
422.201324	1305.627563	20295.669922	8157.524414	36.081524
422.560028	1306.730225	20666.406250	8289.189453	36.067024
422.918671	1310.259033	21005.935547	8408.614258	36.040173
423.277283	1307.281494	21295.291016	8515.248047	36.061455
423.635925	1306.950806	21519.697266	8605.341797	36.107864
423.994476	1306.178833	21684.664063	8674.703125	36.158352
424.353027	1301.437134	21815.447266	8715.834961	36.143093
424.711487	1299.562500	21918.664063	8750.129883	36.134296
425.069946	1303.422119	21966.853516	8748.035156	36.027962
425.428375	1300.003662	21932.335938	8737.338867	36.046993
425.786743	1302.980957	21839.044922	8688.820313	35.965214
426.145081	1302.650146	21688.634766	8629.492188	35.940582
426.503418	1303.201538	21511.423828	8557.041992	35.895489
426.861725	1303.642578	21295.402344	8470.257813	35.847847
427.219971	1305.958252	21063.716797	8399.462891	35.902378
427.578186	1305.737671	20870.742188	8315.324219	35.827168
427.936371	1306.509521	20683.941406	8245.412109	35.809196
428.294495	1304.524658	20465.931641	8166.787109	35.812939
428.652618	1305.406982	20213.738281	8075.593750	35.805309
429.010712	1308.604858	19949.083984	7979.544434	35.787384
429.368744	1307.502197	19655.095703	7866.074219	35.746227
429.726746	1309.266479	19377.318359	7753.706055	35.667591
430.084717	1308.163818	19099.431641	7662.842285	35.717964
430.442688	1307.060913	18835.882813	7567.457031	35.714870
430.800568	1309.376709	18608.390625	7497.653809	35.772430
431.158417	1306.840454	18434.820313	7434.247559	35.774254
431.516235	1306.068604	18281.431641	7377.126465	35.763935
431.874023	1311.692505	18144.582031	7331.804199	35.763985
432.231812	1313.567261	18015.671875	7278.983398	35.716553
432.589508	1312.574707	17917.308594	7253.620605	35.779228
432.947205	1313.015869	17823.136719	7210.173340	35.718437
433.304840	1313.015747	17743.410156	7188.008789	35.756859
433.662476	1316.213623	17696.322266	7166.064941	35.713142
434.020050	1314.890381	17657.066406	7151.066895	35.712360
434.377594	1312.795166	17623.541016	7149.192871	35.782528
434.735138	1308.825195	17599.613281	7138.275879	35.783726
435.092621	1308.935669	17586.931641	7121.292969	35.706837
435.450043	1307.612305	17582.742188	7111.479004	35.660954
435.807465	1309.707520	17606.451172	7117.322754	35.636658
436.164856	1308.053345	17642.402344	7137.613281	35.688965
436.522156	1303.973267	17711.433594	7155.367676	35.663010
436.879486	1305.737671	17791.822266	7185.032227	35.662167
437.236755	1306.840454	17887.759766	7212.710449	35.618469
437.593994	1306.730225	17994.613281	7234.433594	35.521000
437.951172	1304.635010	18134.107422	7283.063965	35.523567
438.308380	1308.053467	18255.406250	7308.316406	35.405308
438.665497	1306.840454	18378.800781	7344.154785	35.363918
439.022583	1309.266602	18541.562500	7396.644531	35.325401
439.379608	1306.399414	18692.748047	7459.058594	35.387875
439.736633	1303.973389	18803.460938	7501.072266	35.413029
440.093628	1303.311646	18901.603516	7539.005859	35.433521
440.450562	1302.098633	18996.988281	7573.520996	35.441998
440.807495	1300.003540	19074.402344	7610.021484	35.500599
441.164368	1297.687866	19164.937500	7644.427246	35.521633
441.521210	1294.820679	19226.908203	7663.835449	35.517418
441.878021	1295.813232	19294.947266	7693.057129	35.541954
442.234833	1294.820801	19409.521484	7728.234375	35.514877
442.591522	1293.056274	19506.119141	7760.102539	35.507736
442.948242	1294.379517	19605.806641	7803.329102	35.545834
443.304901	1289.748169	19723.906250	7836.631836	35.514957
443.661530	1290.961060	19876.414063	7880.079590	35.453098
444.018127	1295.372070	20038.294922	7932.238281	35.409988
444.374664	1293.717773	20193.007813	7976.346680	35.359154
444.731201	1294.710327	20324.121094	8023.543945	35.360180
445.087738	1294.159058	20459.091797	8059.933594	35.302883
445.444183	1294.048950	20529.777344	8083.311523	35.295063
445.800598	1288.535278	20607.960938	8109.446289	35.305973
446.156982	1294.710449	20632.111328	8124.333496	35.318207
446.513336	1294.379639	20623.511719	8125.987305	35.343578
446.869598	1296.143921	20639.279297	8117.717285	35.266121
447.225891	1296.254272	20655.710938	8123.120605	35.263729
447.582153	1298.569946	20644.904297	8121.797852	35.268841
447.938354	1298.900757	20658.910156	8137.787109	35.324806
448.294495	1300.113892	20673.464844	8130.067871	35.254375
448.650665	1300.775269	20647.441406	8121.024414	35.252838
449.006775	1304.304199	20650.308594	8125.325684	35.258038
449.362823	1304.634888	20653.947266	8116.393066	35.204136
449.718842	1306.068604	20646.886719	8112.534180	35.192234
450.074860	1303.201416	20633.435547	8115.511719	35.241737
450.430817	1299.121338	20615.460938	8098.639648	35.200863
450.786713	1303.091187	20522.720703	8067.102539	35.193245
451.142578	1302.429443	20414.103516	8022.882324	35.164127
451.498444	1299.672852	20259.611328	7959.696289	35.126823
451.854248	1298.790649	20091.447266	7900.810059	35.130848
452.210022	1296.364624	19887.664063	7832.330566	35.156048
452.565765	1297.687866	19641.093750	7763.630859	35.249413
452.921478	1298.790527	19413.382813	7675.522949	35.202187
453.277191	1300.665039	19194.601563	7601.639648	35.212902
453.632813	1293.717896	19016.619141	7528.309570	35.178169
453.988434	1291.953491	18836.214844	7454.537109	35.125919
454.343964	1291.512451	18654.484375	7393.336426	35.142738
454.699524	1291.512451	18502.417969	7330.371094	35.087395
455.054993	1289.858398	18362.921875	7279.755859	35.083908
455.410400	1292.946045	18256.728516	7232.117676	35.010891
455.765839	1292.505005	18209.533203	7216.349121	35.017052
456.121216	1291.843384	18214.494141	7226.163086	35.067318
456.476593	1290.850952	18258.162109	7239.616211	35.060154
456.831909	1292.505005	18381.447266	7279.975586	35.037106
457.187195	1290.299438	18541.011719	7323.091309	34.971260
457.542450	1292.725586	18748.433594	7394.879395	34.957932
457.897644	1294.049072	18936.558594	7464.352051	34.974064
458.252808	1294.710571	19188.201172	7553.011230	34.975292
458.607971	1291.733398	19381.619141	7627.224609	35.022282
458.963013	1290.079224	19505.677734	7679.824219	35.078426
459.318085	1288.755859	19596.982422	7713.678711	35.093094
459.673096	1285.116821	19666.013672	7728.123535	35.052734
460.028076	1286.440063	19745.630859	7746.758789	34.997845
460.383057	1284.786133	19806.941406	7774.989746	35.040215
460.737976	1287.983887	19834.839844	7779.951660	35.003063
461.092865	1292.725586	19855.791016	7786.016602	34.979626
461.447723	1296.916016	19856.453125	7788.773926	34.978554
461.802551	1298.239258	19856.453125	7779.840820	34.925781
462.157288	1297.467407	19858.546875	7774.547852	34.896034
462.512054	1300.224121	19875.419922	7770.247070	34.831520
462.866760	1298.349487	19855.460938	7755.360352	34.795345
463.221405	1300.224121	19807.162109	7734.408691	34.766338
463.576019	1303.091187	19712.216797	7697.136230	34.733021
463.930603	1302.539917	19614.736328	7665.928711	34.749454
464.285156	1299.121338	19475.904297	7612.227051	34.731697
464.639709	1298.128906	19264.953125	7548.268555	34.787113
464.994171	1297.908203	19023.126953	7456.962891	34.747410
465.348633	1296.584961	18747.886719	7365.216309	34.774666
465.703033	1295.923462	18464.816406	7268.617676	34.787884
466.057434	1298.790649	18214.716797	7176.319336	34.745533
466.411774	1299.562622	18037.949219	7110.485840	34.716148
466.766083	1301.106445	17885.222656	7049.836914	34.664074
467.120331	1305.737793	17779.470703	7011.461914	34.635284
467.474548	1301.106445	17689.046875	6977.829102	34.639633
467.828735	1303.752930	17619.908203	6948.606445	34.596714
468.182922	1304.083740	17569.181641	6938.352051	34.640240
468.537048	1303.752808	17523.308594	6922.913574	34.644356
468.891144	1301.878296	17492.320313	6908.467285	34.629005
469.245178	1301.878174	17462.218750	6900.748535	34.645744
469.599213	1302.539917	17443.248047	6897.660645	34.664654
469.953186	1298.680298	17429.464844	6889.280273	34.657955
470.307129	1296.805664	17448.871094	6898.542969	34.681244
470.661041	1296.364624	17470.375000	6899.645020	34.643726
471.014923	1294.159180	17540.398438	6918.060059	34.616631
471.368713	1291.402344	17554.513672	6919.273926	34.605133
471.722504	1291.733154	17527.056641	6909.900879	34.604595
472.076294	1294.159180	17506.875000	6896.447754	34.554905
472.429993	1294.820679	17450.636719	6866.232910	34.485489
472.783722	1298.680298	17445.673828	6851.125977	34.386871
473.137329	1298.900757	17468.169922	6840.429199	34.271976
473.490967	1297.136353	17501.912109	6846.934570	34.247917
473.844543	1299.893188	17586.824219	6872.518066	34.215317
474.198090	1304.304077	17671.072266	6905.710449	34.224266
474.551605	1302.319214	17800.201172	6949.708496	34.230995
474.905060	1308.384155	17940.027344	6998.669434	34.213608
475.258484	1308.935547	18086.910156	7050.277344	34.219517
475.611877	1306.178711	18251.660156	7098.577148	34.182556
475.965240	1308.273926	18447.281250	7166.174805	34.178764
476.318573	1309.266235	18634.302734	7227.376465	34.159294
476.671844	1309.597168	18851.650391	7306.441895	34.185535
477.025116	1311.912964	19080.025391	7384.624023	34.177578
477.378326	1311.582275	19312.589844	7471.409180	34.219345
477.731506	1315.882690	19547.250000	7553.670898	34.214592
478.084656	1316.323975	19827.232422	7642.000977	34.172699
478.437744	1317.867554	20118.792969	7738.599121	34.151146
478.790833	1320.844971	20460.417969	7856.480469	34.147240
479.143890	1321.506836	20876.585938	8001.268555	34.158707
479.496826	1319.191040	21361.125000	8159.178711	34.128384
479.849823	1318.308838	22011.734375	8382.259766	34.136208
480.202728	1315.441650	22825.765625	8657.389648	34.132206
480.555603	1315.110840	23823.623047	9008.830078	34.181377
480.908478	1315.441772	25161.562500	9480.796875	34.241859
481.261292	1316.985596	26807.597656	10093.582031	34.430702
481.614075	1312.574707	28644.851563	10816.527344	34.771904
481.966797	1312.464355	30482.433594	11579.062500	35.195778
482.319489	1309.045898	32214.595703	12248.638672	35.396854
482.672150	1305.296631	33764.917969	12812.903320	35.452068
483.024780	1306.730103	35107.265625	13275.166992	35.409016
483.377350	1302.870605	36224.988281	13655.937500	35.373188
483.729919	1298.018677	37244.351563	14003.738281	35.346359
484.082428	1299.011108	38192.691406	14317.241211	35.285801
484.434937	1295.702881	39178.636719	14658.645508	35.274307
484.787384	1295.151489	40234.167969	15028.720703	35.269432
485.139771	1292.725586	41388.390625	15430.443359	35.259968
485.492157	1292.835815	42569.632813	15838.894531	35.240280
485.844482	1293.387207	43648.093750	16227.824219	35.260395
486.196777	1294.710449	44636.695313	16573.419922	35.251522
486.549072	1296.033813	45404.960938	16842.152344	35.244835
486.901276	1296.695313	45975.839844	17044.285156	35.245953
487.253448	1298.239258	46288.355469	17147.609375	35.228558
487.605591	1302.208984	46303.132813	17157.976563	35.234318
487.957703	1299.672607	46083.031250	17067.990234	35.210217
488.309784	1299.562378	45554.933594	16867.074219	35.176548
488.661835	1296.033691	44797.800781	16555.224609	35.077179
489.013855	1298.349365	44004.054688	16180.958008	34.849228
489.365814	1299.231567	43266.445313	15809.340820	34.574867
489.717743	1303.532349	42634.578125	15523.182617	34.404282
490.069611	1305.186401	42050.355469	15298.778320	34.344173
490.421509	1304.965820	41502.742188	15108.667969	34.339466
490.773315	1302.981079	41014.894531	14935.431641	34.328365
491.125092	1306.619995	40491.542969	14757.230469	34.325985
491.476807	1304.524780	39882.945313	14553.005859	34.341690
491.828522	1307.612305	39140.375000	14288.129883	34.310257
492.180176	1309.707520	38236.800781	13965.363281	34.272007
492.531830	1309.156128	37205.195313	13588.338867	34.207626
492.883423	1306.178711	36045.132813	13198.196289	34.232517
493.234985	1304.745239	34956.851563	12804.522461	34.172535
493.586487	1304.965698	33935.281250	12426.176758	34.082451
493.937988	1305.296509	33071.078125	12111.679688	34.018944
494.289429	1307.391846	32372.283203	11863.565430	33.981045
494.640869	1306.950562	31790.261719	11666.729492	33.985085
494.992218	1303.752808	31337.705078	11509.590820	33.981003
495.343567	1308.053345	30892.642578	11362.266602	33.984627
495.694855	1309.266479	30385.390625	11195.534180	34.001324
496.046112	1310.589722	29761.578125	10971.570313	33.956573
496.397339	1310.479492	28948.871094	10687.729492	33.928349
496.748535	1314.008179	28032.728516	10360.991211	33.860092
497.099670	1311.030884	27087.691406	10013.413086	33.760704
497.450806	1309.817871	26246.529297	9705.090820	33.666321
497.801880	1306.840576	25569.789063	9459.292969	33.600418
498.152924	1311.582275	24976.521484	9256.391602	33.572067
498.503937	1313.897827	24514.037109	9092.305664	33.527420
498.854889	1314.449219	24176.052734	8968.138672	33.478359
499.205841	1312.243774	23892.431641	8872.311523	33.480980
499.556702	1311.140991	23686.552734	8799.532227	33.467052
499.907562	1307.943115	23485.634766	8729.507813	33.464100
500.258362	1310.148560	23315.595703	8664.227539	33.419357
500.609161	1309.707520	23158.457031	8601.041992	33.371861
500.959900	1308.494507	22990.400391	8547.559570	33.387585
501.310608	1307.171265	22819.037109	8490.107422	33.390579
501.661255	1307.171265	22611.285156	8417.879883	33.377163
502.011902	1309.266602	22391.291016	8350.612305	33.399761
502.362488	1311.913086	22170.857422	8272.319336	33.368927
502.713043	1309.487061	21960.457031	8201.302734	33.372841
503.063568	1309.817871	21776.964844	8130.288086	33.323994
503.414063	1310.369263	21571.416016	8074.931641	33.387032
503.764496	1309.487061	21409.425781	8017.811035	33.374847
504.114899	1307.722656	21250.632813	7964.107910	33.377201
504.465271	1306.950684	21128.449219	7923.307129	33.379700
504.815613	1310.699951	21029.423828	7896.731445	33.399883
505.165894	1314.559570	20931.613281	7872.912109	33.431892
505.516174	1314.890381	20892.464844	7850.856934	33.384968
505.866394	1313.125977	20881.437500	7842.696289	33.368080
506.216583	1311.802856	20873.714844	7837.403809	33.358707
506.566711	1311.802734	20907.458984	7844.791504	33.338963
506.916840	1310.810303	20949.033203	7855.046875	33.323975
507.266907	1311.251343	21002.847656	7880.960449	33.363010
507.616882	1312.464355	21083.457031	7907.757324	33.358433
507.966858	1310.589966	21133.298828	7927.937500	33.382660
508.316803	1311.251587	21188.214844	7949.771484	33.398060
508.666748	1311.030884	21251.291016	7965.100586	33.370026
509.016632	1309.707642	21313.376953	7994.322266	33.416943
509.366486	1309.046021	21402.917969	8022.110352	33.408516
509.716309	1306.840454	21490.474609	8034.681641	33.333149
510.066040	1308.715088	21588.066406	8066.660156	33.324268
510.415771	1308.935669	21689.849609	8103.049805	33.335670
510.765503	1303.863037	21797.253906	8129.625977	33.307140
511.115173	1302.870483	21897.271484	8158.186035	33.287277
511.464752	1302.650024	21996.625000	8179.579102	33.231552
511.814270	1304.965820	22078.666016	8209.132813	33.235134
512.163818	1302.980835	22163.134766	8224.680664	33.181442
512.513306	1300.444580	22225.990234	8242.213867	33.173660
512.862793	1297.797974	22280.796875	8262.946289	33.194248
513.212219	1294.931030	22320.494141	8282.685547	33.234566
513.561646	1295.482178	22372.982422	8300.659180	33.235329
513.911011	1294.710449	22402.203125	8314.664063	33.258114
514.260315	1298.128906	22437.380859	8322.933594	33.231094
514.609558	1299.893188	22506.414063	8341.128906	33.203163
514.958801	1300.665283	22600.585938	8369.579102	33.187515
515.308044	1304.193970	22745.705078	8414.790039	33.162754
515.657227	1303.311890	22949.488281	8475.880859	33.135502
516.006348	1307.171387	23197.712891	8555.939453	33.113701
516.355408	1308.935669	23468.322266	8635.225586	33.061790
516.704529	1306.950684	23702.210938	8707.343750	33.044460
517.053467	1310.810181	23927.384766	8785.857422	33.051193
517.402466	1309.817627	24100.404297	8838.789063	33.035446
517.751404	1310.589600	24227.660156	8882.897461	33.042213
518.100281	1315.882813	24354.253906	8917.523438	32.995564
518.449219	1316.764893	24445.224609	8945.973633	32.986240
518.798035	1314.228638	24541.933594	8967.035156	32.946892
519.146851	1311.471924	24637.761719	8987.104492	32.905502
519.495544	1311.582275	24703.267578	9012.908203	32.923347
519.844299	1311.582031	24792.478516	9034.632813	32.890781
520.192932	1310.589600	24892.824219	9070.802734	32.907028
520.541626	1311.912964	24987.878906	9100.464844	32.896446
520.890198	1313.236084	25089.660156	9130.791016	32.879440
521.238770	1315.993042	25211.404297	9163.430664	32.840771
521.587280	1313.897827	25350.234375	9208.312500	32.843670
521.935791	1315.000488	25468.556641	9242.166992	32.819874
522.284180	1312.905273	25587.652344	9271.608398	32.785938
522.632629	1310.810181	25735.308594	9321.783203	32.798927
522.981018	1313.346436	25881.085938	9373.611328	32.808327
523.329346	1309.376709	26049.583984	9432.607422	32.834126
523.677551	1312.795288	26239.253906	9493.698242	32.820156
524.025818	1310.810303	26502.146484	9570.336914	32.787170
524.374023	1305.848267	26813.333984	9666.164063	32.775928
524.722229	1304.304443	27208.441406	9800.917969	32.800217
525.070374	1302.760376	27733.115234	9969.635742	32.791367
525.418457	1301.878174	28432.574219	10205.507813	32.817551
525.766541	1303.532227	29419.845703	10538.972656	32.847267
526.114563	1305.406860	30673.535156	10979.401367	32.940453
526.462585	1304.414429	32059.880859	11492.057617	33.124660
526.810547	1302.319214	33429.792969	11981.999023	33.241577
527.158447	1303.311523	34649.191406	12399.380859	33.275684
527.506348	1306.509521	35670.535156	12739.129883	33.269150
527.854065	1305.406860	36507.835938	13014.260742	33.261494
528.201904	1305.296631	37179.289063	13240.208008	33.268978
528.549622	1304.965820	37700.105469	13410.800781	33.262230
528.897339	1304.965820	38087.820313	13534.084961	33.246792
529.245056	1305.848022	38392.945313	13638.401367	33.252949
529.592712	1304.965942	38621.097656	13719.784180	33.269306
529.940369	1302.209106	38808.785156	13771.721680	33.246204
530.287903	1298.239258	39002.093750	13829.835938	33.236912
530.635437	1300.003662	39242.042969	13898.096680	33.203522
530.982910	1296.254272	39534.929688	13994.144531	33.206932
531.330383	1298.349487	39778.742188	14080.377930	33.216988
531.677795	1296.364624	39893.535156	14134.298828	33.261333
532.025208	1296.805664	39896.734375	14125.809570	33.235821
532.372498	1296.144043	39700.453125	14056.338867	33.225948
532.719788	1294.379639	39259.023438	13899.419922	33.202049
533.067078	1295.261841	38522.738281	13642.263672	33.166367
533.414307	1297.577637	37499.183594	13290.604492	33.128441
533.761536	1299.782959	36364.812500	12856.901367	32.959099
534.108643	1298.790649	35301.566406	12464.661133	32.838112
534.455811	1298.349487	34402.292969	12153.693359	32.791691
534.802856	1298.459717	33658.390625	11894.772461	32.745163
535.149902	1300.996094	33076.042969	11696.723633	32.716640
535.496887	1300.665161	32572.203125	11525.468750	32.696838
535.843811	1298.790527	32153.277344	11386.304688	32.693832
536.190796	1300.113892	31807.683594	11264.123047	32.660774
536.537659	1300.885742	31473.228516	11154.842773	32.658905
536.884460	1301.216553	31187.402344	11049.201172	32.617023
537.231323	1303.973267	30885.589844	10959.661133	32.640839
537.578064	1306.950806	30573.738281	10851.373047	32.611786
537.924805	1308.274048	30209.177734	10740.328125	32.635841
538.271423	1307.502197	29892.691406	10628.292969	32.607063
538.618164	1308.935547	29722.433594	10562.901367	32.568909
538.964783	1312.795288	29751.984375	10580.213867	32.586788
539.311279	1312.354126	29938.345703	10655.530273	32.638783
539.657776	1313.787720	30217.447266	10747.055664	32.636932
540.004333	1312.023193	30474.714844	10827.665039	32.629505
540.350769	1311.030762	30722.937500	10904.966797	32.619225
540.697144	1310.920410	30910.619141	10964.073242	32.612331
541.043518	1307.501953	31016.039063	11008.072266	32.652466
541.389893	1307.832764	30991.449219	10993.957031	32.631210
541.736145	1312.243652	30870.919922	10956.354492	32.627007
542.082458	1311.030762	30728.115234	10899.673828	32.595490
542.428711	1313.677490	30558.958984	10834.723633	32.555836
542.774902	1311.030884	30414.613281	10789.511719	32.568089
543.121033	1314.559570	30309.851563	10749.262695	32.538742
543.467102	1315.772705	30228.580078	10712.100586	32.498844
543.813171	1314.449341	30173.115234	10682.767578	32.462757
544.159180	1314.118530	30124.265625	10669.976563	32.474178
544.505127	1316.103394	30064.390625	10627.631836	32.389854
544.851135	1315.882813	29946.505859	10595.100586	32.410114
545.197021	1314.228760	29733.347656	10518.570313	32.387852
545.542908	1312.574585	29327.765625	10392.087891	32.409252
545.888733	1313.125977	28734.279297	10193.708008	32.385883
546.234558	1312.574585	27955.421875	9919.790039	32.305916
546.580322	1314.449219	27086.472656	9613.343750	32.201176
546.926025	1314.449219	26190.398438	9304.139648	32.118134
547.271667	1315.331421	25366.664063	9045.770508	32.141418
547.617371	1312.464233	24569.062500	8788.615234	32.146366
547.962952	1309.376709	23836.634766	8552.962891	32.154762
548.308533	1316.875244	23176.984375	8334.623047	32.102985
548.654053	1318.749878	22597.058594	8146.497559	32.087830
548.999573	1316.985596	22105.242188	7978.994141	32.046982
549.344971	1317.426514	21676.394531	7844.792480	32.061378
549.690430	1313.456787	21303.451172	7725.478516	32.076157
550.035767	1313.897827	20995.458984	7619.395996	32.037590
550.381104	1314.338867	20720.439453	7529.191406	32.025249
550.726440	1308.715088	20440.898438	7449.684570	32.097588
551.071655	1308.053345	20193.007813	7364.995605	32.072845
551.416931	1305.737671	19905.525391	7267.294434	32.051746
551.762085	1305.958130	19601.064453	7180.950195	32.112370
552.107178	1303.752686	19293.402344	7078.727539	32.101650
552.452332	1302.539795	18985.742188	6978.049316	32.095486
552.797424	1304.304077	18713.041016	6885.199219	32.058014
553.142395	1299.011108	18451.914063	6802.604980	32.085495
553.487366	1300.113770	18255.408203	6731.258789	32.032146
553.832336	1301.106323	18065.296875	6672.042480	32.038147
554.177185	1299.782959	17916.652344	6629.808594	32.075989
554.522095	1301.326782	17807.810547	6585.038574	32.009918
554.866943	1304.745361	17704.042969	6552.949219	32.002617
555.211731	1306.068604	17624.757813	6507.737305	31.875530
555.556396	1300.885742	17547.566406	6487.005859	31.921106
555.901123	1302.760376	17476.771484	6456.791016	31.866127
556.245789	1303.201538	17389.656250	6435.949219	31.907263
556.590454	1305.406860	17291.294922	6401.213379	31.876907
556.934998	1303.642700	17206.494141	6365.595215	31.830471
557.279541	1307.722656	17093.353516	6320.604004	31.755978
557.624023	1306.620117	16953.750000	6267.452148	31.704422
557.968567	1311.361694	16822.525391	6219.263184	31.641090
558.312988	1313.567017	16687.994141	6180.778320	31.657841
558.657349	1316.213745	16581.359375	6143.947266	31.625858
559.001770	1315.000732	16496.228516	6107.226563	31.566786
559.346069	1317.757568	16420.470703	6072.490723	31.482645
559.690308	1318.970459	16366.767578	6050.215332	31.441446
560.034485	1318.529541	16310.417969	6033.674805	31.451311
560.378723	1321.727173	16279.982422	6020.221191	31.410711
560.722900	1318.970459	16237.306641	6017.354492	31.494020
561.067017	1315.662354	16214.701172	6004.673340	31.471901
561.411072	1315.110962	16186.361328	6003.570313	31.527002
561.755127	1317.206055	16158.242188	5998.938965	31.545862
562.099182	1316.213745	16149.860352	6004.342285	31.604692
562.443115	1316.103394	16154.382813	6020.883301	31.707045
562.787048	1318.198486	16166.845703	6019.229004	31.659653
563.130920	1317.536865	16204.117188	6035.328613	31.691578
563.474792	1314.559570	16275.242188	6045.363770	31.621580
563.818604	1309.817749	16366.658203	6078.334961	31.670103
564.162354	1314.890259	16455.423828	6112.740234	31.688780
564.506042	1312.133545	16567.021484	6151.887695	31.725924
564.849731	1311.582153	16664.722656	6188.608398	31.765659
565.193420	1309.376709	16735.189453	6215.073730	31.801872
565.537048	1304.304077	16789.001953	6233.048340	31.829771
565.880615	1304.965820	16818.666016	6245.067871	31.843481
566.224121	1303.201416	16827.597656	6247.714355	31.849951
566.567627	1303.642578	16828.146484	6256.867676	31.905851
566.911072	1306.509766	16823.736328	6256.536621	31.900204
567.254517	1305.848022	16856.265625	6261.829102	31.870403
567.597839	1307.612305	16881.408203	6280.464844	31.930895
567.941223	1305.847900	16914.271484	6291.381836	31.941305
568.284485	1305.186401	16938.753906	6304.504395	31.978100
568.627808	1306.289063	17000.615234	6316.964844	31.926670
568.970947	1304.855591	17070.197266	6339.681641	31.936043
569.314148	1310.589600	17146.837891	6354.898926	31.852934
569.657288	1314.449341	17232.078125	6373.865234	31.784985
570.000366	1315.772461	17313.900391	6396.582031	31.758776
570.343445	1316.213745	17378.958984	6411.799805	31.723007
570.686462	1319.301392	17399.359375	6420.291016	31.722460
571.029419	1319.521851	17410.937500	6419.408691	31.693213
571.372314	1314.559570	17389.546875	6414.886719	31.728344
571.715210	1314.780029	17336.173828	6390.847656	31.683058
572.058105	1315.441650	17284.566406	6377.174316	31.696993
572.400879	1318.308716	17266.921875	6373.755859	31.698351
572.743713	1316.985474	17250.712891	6372.101074	31.725883
573.086426	1315.882813	17256.779297	6379.268555	31.763494
573.429077	1315.993042	17280.599609	6385.444336	31.754313
573.771790	1313.456787	17288.978516	6375.740234	31.687750
574.114441	1308.825317	17280.158203	6376.843750	31.731970
574.457031	1309.376709	17246.634766	6357.656250	31.675959
574.799561	1306.399414	17192.378906	6330.087891	31.623411
575.142029	1312.684937	17144.080078	6306.710449	31.545074
575.484436	1316.103271	17057.294922	6278.700684	31.526188
575.826904	1311.471802	16940.076172	6245.619141	31.571260
576.169250	1314.890381	16794.847656	6191.144531	31.500435
576.511597	1309.266357	16627.013672	6128.289063	31.460386
576.853943	1303.863037	16422.126953	6057.824707	31.445158
577.196167	1302.980835	16207.315430	5992.984375	31.467379
577.538391	1300.885742	15981.145508	5923.844238	31.490986
577.880554	1295.923462	15774.605469	5853.379395	31.477011
578.222717	1297.798096	15546.340820	5780.489746	31.460701
578.564819	1298.459717	15335.276367	5712.120605	31.443462
578.906860	1297.798096	15149.357422	5660.733398	31.497793
579.248901	1294.489990	14957.482422	5595.562012	31.479725
579.590942	1292.505005	14756.014648	5530.060547	31.474377
579.932861	1296.474854	14573.073242	5464.118164	31.390898
580.274780	1295.813232	14376.127930	5394.204590	31.332516
580.616638	1297.577515	14177.304688	5333.334961	31.334183
580.958496	1300.665161	13971.095703	5271.471191	31.339157
581.300232	1301.988525	13802.267578	5208.505371	31.251436
581.641968	1302.760376	13638.404297	5156.787109	31.243013
581.983704	1300.885620	13495.599609	5106.392578	31.206200
582.325317	1296.915771	13360.736328	5050.594727	31.115177
582.666992	1296.474731	13243.408203	5010.235352	31.085472
583.008606	1298.018555	13132.584961	4964.802734	30.983681
583.350098	1295.482300	13037.419922	4930.397461	30.956688
583.691589	1294.710449	12956.919922	4910.658691	31.005690
584.033081	1295.813232	12896.602539	4887.060547	30.956923
584.374512	1293.276978	12835.179688	4863.021484	30.928564
584.715881	1293.607666	12787.429688	4848.795898	30.931297
585.057190	1291.512451	12741.335938	4830.601074	30.909548
585.398499	1289.086548	12694.800781	4816.817383	30.929506
585.739807	1291.071655	12657.087891	4802.812500	30.896847
586.081055	1291.622803	12628.416992	4793.218262	30.886999
586.422180	1291.622803	12602.281250	4789.028809	30.921331
586.763367	1289.637939	12593.017578	4781.419922	30.891485
587.104431	1289.196777	12593.017578	4778.441895	30.867840
587.445496	1290.189331	12597.098633	4775.354492	30.823322
587.786499	1287.211914	12592.797852	4772.377441	30.826935
588.127502	1283.021484	12621.468750	4783.735352	30.874720
588.468445	1284.234619	12627.754883	4787.485352	30.883276
588.809326	1284.124390	12634.040039	4796.747559	30.948450
589.150208	1287.322266	12639.332031	4794.100586	30.891254
589.491028	1290.740723	12626.099609	4801.268066	30.969706
589.831848	1290.299683	12624.998047	4803.143066	30.991943
590.172546	1291.291992	12613.971680	4801.489258	31.001471
590.513245	1289.307251	12605.810547	4804.797363	31.065165
590.853943	1289.307251	12610.994141	4807.774414	31.077236
591.194458	1290.189331	12623.235352	4805.018066	31.013981
591.535095	1288.645508	12624.227539	4808.657227	31.052765
591.875610	1289.527588	12644.406250	4805.790039	30.966974
592.216125	1291.622803	12648.376953	4815.273438	31.026917
592.556580	1291.071411	12667.343750	4820.014648	31.020208
592.897034	1287.763184	12700.867188	4830.160156	31.037981
593.237366	1287.652954	12718.510742	4835.784180	31.039940
593.577698	1288.535156	12771.110352	4845.598633	30.977924
593.918030	1289.307007	12819.409180	4866.880859	31.028118
594.258301	1292.284302	12873.332031	4887.612305	31.044930
594.598511	1292.063843	12952.838867	4918.157227	31.096502
594.938721	1294.379639	13037.417969	4943.961426	31.078684
595.278809	1299.231567	13118.026367	4968.331055	31.044617
595.618958	1298.790527	13172.391602	4991.377930	31.099134
595.958984	1299.011108	13228.298828	4997.111816	31.000179
596.299011	1302.098633	13252.007813	5006.375488	30.998369
596.638977	1299.011108	13278.141602	5004.610840	30.933794
596.978943	1297.908447	13289.832031	4999.539063	30.867697
597.318848	1300.665161	13285.533203	4997.664551	30.847227
597.658630	1300.113770	13271.526367	4992.591797	30.844131
597.998474	1298.128662	13238.885742	4985.755371	30.882689
598.338257	1297.356934	13184.189453	4976.933594	30.955065
598.677979	1298.680298	13151.439453	4961.164063	30.899843
599.017700	1297.026245	13096.192383	4952.783691	30.983185
599.357361	1300.444580	13052.415039	4933.925781	30.918058
599.696960	1305.737671	13013.156250	4920.803711	30.878420
600.036560	1307.171265	12965.298828	4899.852051	30.816961
600.376038	1303.973389	12926.591797	4881.325684	30.779230
600.715576	1303.422119	12884.029297	4868.755371	30.787100
601.055054	1302.870850	12840.801758	4850.891113	30.750923
601.394409	1301.878174	12806.395508	4835.893555	30.718502
601.733826	1303.752930	12760.414063	4816.044434	30.657200
602.073120	1301.878296	12756.113281	4810.420898	30.630962
602.412415	1297.577515	12743.873047	4810.861816	30.693634
602.751587	1296.915894	12771.220703	4818.911621	30.694632
603.090820	1298.459839	12801.544922	4834.680664	30.741499
603.429993	1293.166748	12848.080078	4850.450195	30.785894
603.769104	1292.063965	12883.807617	4873.717773	30.898317
604.108154	1293.828369	12909.392578	4889.707031	30.957417
604.447205	1296.144165	12946.553711	4903.711914	30.965160
604.786194	1298.349487	12976.877930	4914.297852	30.962362
605.125183	1302.319336	13007.534180	4910.217773	30.823000
605.464111	1300.665039	13028.486328	4921.244629	30.871716
605.802979	1299.562378	13050.870117	4925.876465	30.858812
606.141846	1300.113770	13074.911133	4931.389648	30.839394
606.480652	1297.908325	13114.829102	4945.835449	30.870371
606.819336	1295.702881	13167.648438	4958.406738	30.851759
607.158020	1295.261719	13228.960938	4984.872559	30.917578
607.496765	1300.003296	13292.807617	5007.368164	30.913242
607.835388	1301.216431	13331.182617	5023.578125	30.942413
608.173950	1305.076050	13348.386719	5034.274414	30.964893
608.512512	1303.201416	13325.559570	5030.194336	31.000515
608.851013	1301.216431	13280.789063	5023.467773	31.071655
609.189514	1304.965820	13184.080078	5001.192871	31.115343
609.527893	1305.186279	13073.698242	4959.730469	31.053579
609.866333	1304.414673	12945.449219	4918.157715	31.043146
610.204712	1303.091309	12806.505859	4870.630371	31.012873
610.542969	1304.304321	12678.920898	4829.608398	30.992731
610.881226	1305.627563	12564.238281	4784.949219	30.903652
611.219482	1303.532349	12470.395508	4751.425781	30.876116
611.557678	1301.547363	12383.722656	4718.123535	30.829472
611.895813	1299.011108	12310.279297	4690.665039	30.801662
612.233948	1298.018555	12237.611328	4677.432129	30.891584
612.571960	1302.098633	12167.256836	4659.898926	30.904293
612.910034	1306.619873	12098.998047	4640.821777	30.894043
613.247986	1306.730103	12027.210938	4618.215820	30.889341
613.585938	1308.935547	11942.411133	4599.138184	30.941931
613.923828	1305.737671	11822.654297	4567.049316	31.010147
614.261658	1308.715088	11693.414063	4522.830078	30.950487
614.599487	1306.730103	11548.295898	4478.721191	30.971743
614.937317	1307.943115	11424.239258	4434.391602	30.905071
615.275024	1307.612305	11309.556641	4393.921387	30.857092
615.612732	1306.399414	11213.178711	4360.839355	30.831816
615.950378	1305.627441	11119.227539	4332.278809	30.841398
616.288025	1302.429443	11032.443359	4307.688477	30.886482
616.625549	1303.421997	10971.901367	4293.352539	30.924519
616.963074	1304.414307	10919.523438	4272.180664	30.865654
617.300537	1305.517212	10871.445313	4263.799316	30.925200
617.638000	1305.296631	10823.035156	4256.411621	31.006474
617.975464	1309.266357	10790.614258	4243.730469	30.949863
618.312744	1310.369141	10753.563477	4229.063965	30.907919
618.650024	1309.486938	10720.259766	4215.941406	30.884336
618.987305	1308.274048	10683.428711	4203.811523	30.885225
619.324585	1305.958374	10658.507813	4196.202637	30.903275
619.661743	1302.429565	10644.723633	4180.543945	30.807362
619.998901	1299.783081	10616.824219	4175.030273	30.860088
620.336060	1298.018799	10589.255859	4163.561523	30.841347
620.673096	1295.151611	10567.752930	4148.785645	30.774902
621.010193	1298.459717	10548.125000	4139.302246	30.712923
621.347168	1296.254272	10527.833984	4134.339844	30.743225
621.684082	1297.908447	10493.208984	4130.590332	30.805756
622.020996	1297.356934	10457.591797	4121.327637	30.828587
622.357849	1298.128906	10433.993164	4111.072754	30.790123
622.694641	1299.562500	10412.929688	4104.235840	30.775379
623.031433	1303.863037	10391.095703	4089.900635	30.658813
623.368164	1305.296631	10386.905273	4083.173828	30.587942
623.704895	1306.619873	10376.759766	4076.998535	30.543947
624.041504	1307.832886	10383.927734	4075.454590	30.493528
624.378174	1305.737671	10402.343750	4080.196045	30.499929
624.714783	1311.692505	10445.901367	4081.629395	30.324871
625.051331	1308.715210	10478.101563	4100.265625	30.444242
625.387756	1309.156250	10514.711914	4113.608398	30.464779
625.724304	1309.486938	10534.119141	4129.157227	30.566753
626.060669	1310.589600	10552.314453	4140.074219	30.616413
626.397034	1310.369141	10560.364258	4138.971191	30.579498
626.733337	1310.369141	10564.333984	4140.515137	30.583063
627.069641	1307.502075	10570.950195	4132.685547	30.498184
627.405884	1309.486938	10560.474609	4128.385254	30.471325
627.742126	1308.935669	10550.439453	4121.437500	30.433380
628.078308	1308.053467	10538.639648	4121.106934	30.475351
628.414429	1304.524780	10513.057617	4104.786621	30.409422
628.750488	1304.414551	10493.319336	4093.759766	30.355579
629.086548	1301.767944	10460.126953	4091.885010	30.465252
629.422546	1299.121338	10419.546875	4079.313965	30.483145
629.758545	1297.798096	10365.293945	4073.248779	30.608788
630.094421	1294.710571	10318.648438	4059.134277	30.634342
630.430298	1293.497437	10264.283203	4043.475342	30.654816
630.766113	1293.276855	10200.986328	4017.009766	30.577255
631.101929	1292.615479	10124.567383	3994.403564	30.591063
631.437622	1293.166626	10043.185547	3967.386963	30.562452
631.773376	1288.865967	9950.115234	3943.789063	30.652889
632.109070	1292.725586	9856.714844	3913.794922	30.605705
632.444641	1292.946167	9763.423828	3888.322266	30.640255
632.780273	1293.387329	9687.446289	3862.408203	30.605230
633.115784	1294.489990	9618.195313	3836.824707	30.543306
633.451294	1297.246826	9549.165039	3816.865234	30.533731
633.786682	1299.121338	9481.458008	3801.758301	30.585846
634.122131	1302.650146	9403.604492	3783.011475	30.618137
634.457458	1301.106323	9351.556641	3765.478516	30.611607
634.792847	1303.311768	9290.575195	3749.378418	30.624588
635.128113	1303.201538	9227.279297	3727.875488	30.598814
635.463318	1304.414429	9176.002930	3719.384277	30.679573
635.798584	1300.775513	9127.813477	3701.188721	30.668219
636.133728	1301.657715	9074.221680	3677.480225	30.566780
636.468872	1304.965820	9012.358398	3661.490967	30.574869
636.803955	1305.737793	8963.067383	3629.843262	30.351383
637.139038	1303.201416	8913.554688	3609.552734	30.305443
637.473999	1305.406860	8849.266602	3587.939453	30.256828
637.808899	1305.958374	8783.101563	3572.831543	30.317369
638.143799	1307.391846	8715.173828	3554.636475	30.336267
638.478638	1309.156128	8654.302734	3527.289551	30.198626
638.813538	1309.156006	8589.573242	3506.558105	30.182365
639.148315	1305.516968	8517.233398	3477.446045	30.116676
639.483032	1306.509521	8454.048828	3454.619385	30.053839
639.817749	1303.421875	8386.782227	3431.021240	30.036583
640.152405	1302.098633	8323.044922	3409.628418	30.017746
640.487000	1301.547363	8252.250000	3383.383545	29.951448
640.821594	1301.326782	8187.410156	3360.667725	29.905836
641.156128	1299.121338	8138.338379	3341.700439	29.865686
641.490662	1297.687744	8078.791504	3324.277588	29.885841
641.825134	1298.569946	8018.140625	3306.413330	29.880529
642.159546	1298.459717	7977.560059	3287.225830	29.775957
642.493896	1302.760376	7925.291016	3266.825439	29.657318
642.828186	1301.216553	7883.938477	3255.467529	29.687584
643.162537	1299.562622	7849.974609	3241.132080	29.640417
643.496765	1293.718140	7814.246094	3225.473145	29.625746
643.830994	1292.505005	7780.061523	3220.180176	29.713423
644.165100	1293.387329	7751.059570	3218.526123	29.811651
644.499268	1292.615479	7734.409180	3214.115234	29.828644
644.833313	1291.071655	7720.955566	3209.594238	29.837593
645.167358	1288.535278	7705.075684	3209.042725	29.930574
645.501343	1287.652954	7682.139648	3211.468750	30.085539
645.835327	1287.873535	7662.069824	3203.418457	30.051552
646.169189	1289.638062	7648.727539	3201.544189	30.065722
646.503052	1289.417358	7636.818359	3200.551758	30.108929
646.836914	1293.387207	7626.342285	3199.779785	30.102734
647.170654	1295.041260	7611.676270	3199.559570	30.150839
647.504395	1296.584961	7607.376465	3202.757080	30.204962
647.838074	1296.695435	7601.641602	3201.874512	30.217213
648.171753	1299.562500	7598.995605	3204.852783	30.245424
648.505371	1300.665283	7600.097656	3204.190430	30.217405
648.838928	1301.988525	7603.184570	3201.985107	30.152950
649.172424	1304.635010	7610.131836	3203.308350	30.111399
649.505920	1302.870728	7606.382324	3203.198242	30.147125
649.839294	1308.274048	7598.001465	3202.977783	30.123781
650.172729	1310.920532	7596.127441	3204.080322	30.120882
650.506104	1314.890381	7600.207520	3211.799561	30.180006
650.839355	1317.536987	7584.989746	3210.035400	30.195656
651.172668	1318.308838	7565.913086	3203.308838	30.171564
651.505859	1316.875244	7542.977051	3197.353760	30.203146
651.839111	1319.080688	7527.979980	3193.935303	30.196247
652.172241	1321.175903	7515.959961	3184.121338	30.072805
652.505371	1319.521729	7502.616211	3178.276367	30.061882
652.838379	1320.845093	7475.930176	3177.504883	30.164650
653.171387	1319.632202	7461.924805	3175.078857	30.207722
653.504333	1318.088379	7438.988281	3163.500000	30.149351
653.837280	1318.970459	7418.918945	3152.913574	30.064896
654.170227	1319.080811	7399.731934	3142.327637	29.984400
654.503052	1315.662354	7379.772461	3134.829346	29.998909
654.835876	1315.441895	7365.657715	3127.882080	29.956621
655.168579	1312.243896	7348.234375	3126.007324	30.049145
655.501343	1312.574707	7332.906250	3119.722168	30.017408
655.833984	1310.920532	7323.863770	3123.471436	30.144154
656.166626	1312.464233	7319.673340	3129.977295	30.255533
656.499268	1313.456787	7342.720215	3137.255615	30.249113
656.831787	1312.684937	7376.904785	3144.312988	30.203854
657.164307	1311.912964	7422.889160	3153.575928	30.136969
657.496765	1311.140991	7469.424316	3159.861328	30.020060
657.829224	1311.361572	7518.275391	3170.887939	29.958952
658.161621	1315.110718	7566.463379	3183.128418	29.881817
658.493958	1317.095703	7605.831055	3193.604248	29.839203
658.826233	1310.920410	7635.494629	3200.882324	29.882832
659.158508	1310.479370	7661.739746	3204.852295	29.826725
659.490723	1311.140991	7680.155273	3209.704346	29.809376
659.822876	1310.479492	7699.012695	3212.240723	29.768354
660.154968	1306.399414	7700.555664	3211.579346	29.795643
660.487061	1307.943115	7699.343750	3214.005127	29.822290
660.819153	1303.642700	7693.719727	3209.814697	29.830187
661.151123	1305.406982	7679.934570	3206.175537	29.818188
661.483093	1308.935791	7668.576660	3203.198242	29.785685
661.815002	1310.479614	7652.807129	3196.912598	29.743544
662.146851	1312.354126	7623.915039	3191.068359	29.766237
662.478760	1314.008057	7595.354980	3185.223877	29.790043
662.810486	1311.802612	7558.523926	3169.565186	29.739803
663.142212	1309.597168	7505.482910	3153.024170	29.752438
663.473938	1306.730103	7453.654785	3133.175293	29.713154
663.805603	1306.840332	7388.263184	3104.724854	29.563551
664.137207	1307.060913	7295.854980	3081.898438	29.635975
664.468689	1306.730103	7208.187500	3056.866455	29.656002
664.800293	1304.965820	7131.107910	3035.473877	29.702469
665.131775	1304.083496	7048.623535	3013.198730	29.751995
665.463196	1302.539795	6980.255859	2990.372314	29.727316
665.794617	1304.965820	6923.795410	2967.766357	29.593361
666.125916	1309.156250	6865.902344	2954.533691	29.610449
666.457275	1308.715210	6822.564941	2942.403564	29.628817
666.788574	1305.627563	6776.801270	2924.649658	29.591860
667.119812	1306.730225	6747.910645	2914.504639	29.548264
667.450928	1307.612305	6727.731445	2906.234131	29.494219
667.782104	1311.582153	6713.063965	2901.492432	29.434706
668.113159	1308.384155	6691.230469	2896.089111	29.495640
668.444214	1304.414307	6669.286621	2896.530273	29.676682
668.775208	1303.311523	6650.980469	2896.309570	29.788643
669.106201	1304.414307	6636.645996	2893.221924	29.796299
669.437134	1303.311646	6629.367676	2891.347168	29.816349
669.768005	1302.870605	6622.200195	2886.495361	29.771133
670.098877	1300.444702	6610.951660	2880.981689	29.762451
670.429688	1303.201416	6591.874023	2876.791016	29.753960
670.760437	1299.893311	6567.504395	2878.445068	29.967127
671.091187	1298.349487	6559.564941	2869.182373	29.856844
671.421814	1296.033813	6542.692871	2866.535645	29.933369
671.752441	1295.261963	6521.189941	2861.021973	29.961378
672.083008	1292.946167	6507.185059	2853.192627	29.922804
672.413574	1293.607788	6493.731934	2850.656738	29.942535
672.744080	1296.033813	6466.936035	2844.371094	29.943270
673.074524	1293.828369	6440.581055	2838.526611	30.013063
673.404968	1297.467407	6416.541504	2828.161377	29.901773
673.735352	1301.437256	6396.582520	2826.286621	29.927494
674.065613	1303.752930	6375.410156	2812.392334	29.746477
674.395935	1302.429688	6351.700684	2805.775879	29.773529
674.726196	1301.657837	6320.494141	2800.923828	29.872780
675.056335	1304.414551	6304.504395	2793.094482	29.773064
675.386536	1304.745361	6292.815430	2784.934570	29.674585
675.716614	1306.840454	6281.346680	2781.185303	29.638014
676.046692	1308.274048	6279.913086	2772.914795	29.459917
676.376770	1310.259033	6268.334961	2769.165283	29.424845
676.706726	1312.023315	6257.638184	2768.724121	29.454393
677.036621	1310.038452	6262.820801	2769.275391	29.462975
677.366516	1310.258911	6260.616211	2768.613770	29.459587
677.696411	1314.338989	6274.068359	2767.180176	29.292751
678.026184	1313.787720	6291.381836	2777.876709	29.413586
678.355957	1312.464355	6305.166016	2783.059570	29.454899
678.685669	1312.464355	6330.639160	2785.816650	29.360323
679.015320	1309.817749	6346.187500	2791.219727	29.414083
679.344971	1306.730103	6362.838379	2793.535400	29.406120
679.674561	1305.406860	6371.991211	2802.688232	29.552086
680.004150	1301.547241	6394.928711	2809.855957	29.613111
680.333618	1299.231689	6410.145996	2819.669922	29.748852
680.663086	1299.672729	6424.701660	2827.279053	29.806786
680.992493	1298.680298	6430.987305	2837.093262	29.975077
681.321899	1298.569824	6429.002930	2839.188477	30.029016
681.651184	1298.128784	6429.994629	2842.717285	30.097992
681.980530	1296.585083	6419.849609	2845.694824	30.236771
682.309753	1295.372070	6412.682129	2835.329102	30.093096
682.638977	1290.850952	6387.650391	2827.279297	30.144964
682.968079	1288.314697	6361.735840	2820.111328	30.192579
683.297241	1288.976318	6340.563965	2811.510254	30.139709
683.626343	1288.865845	6318.619629	2803.019287	30.103928
683.955383	1293.056396	6279.803711	2795.300049	30.124722
684.284363	1294.048950	6252.235352	2788.573486	30.142563
684.613281	1292.284546	6209.890137	2781.956787	30.292635
684.942139	1296.144043	6166.111816	2770.378174	30.271948
685.271057	1299.231567	6128.619629	2755.491455	30.154127
685.599792	1301.657593	6088.370117	2745.015625	30.153431
685.928589	1305.737671	6056.721191	2737.406738	30.134163
686.257324	1310.810181	6019.118164	2724.835693	30.032560
686.585999	1310.699951	5994.527344	2712.485107	29.928200
686.914612	1310.810303	5948.323242	2700.024658	29.956022
687.243164	1310.369141	5912.043457	2684.145020	29.853827
687.571777	1307.281494	5879.072754	2668.155762	29.766764
687.900269	1308.825317	5843.344727	2659.113281	29.777971
688.228699	1309.707520	5811.365234	2650.181152	29.777334
688.557129	1305.186401	5783.466309	2635.184082	29.698853
688.885498	1306.950806	5757.552246	2623.605225	29.583740
689.213867	1310.920532	5727.668457	2612.688477	29.473448
689.542114	1311.140991	5706.827148	2602.212402	29.371328
689.870361	1310.369141	5686.095703	2593.611084	29.326374
690.198608	1305.737671	5651.470215	2582.473633	29.379074
690.526794	1305.296631	5620.042969	2575.526123	29.439264
690.854858	1302.870605	5598.098633	2565.711914	29.401031
691.182922	1300.775513	5560.605957	2555.125732	29.446012
691.510986	1300.224121	5533.919922	2541.452148	29.317837
691.838928	1297.908447	5499.404785	2530.424805	29.335178
692.166931	1297.687866	5463.015137	2521.603271	29.383415
692.494812	1296.695557	5415.708496	2508.149902	29.411280
692.822632	1295.702881	5372.591309	2493.924805	29.390598
693.150452	1293.056396	5328.923828	2483.228516	29.489872
693.478149	1296.144043	5291.430664	2470.657471	29.397476
693.805908	1294.379639	5266.067871	2458.306885	29.305605
694.133606	1294.710449	5228.244141	2448.713135	29.337557
694.461243	1296.585083	5198.580078	2443.640625	29.396643
694.788818	1295.261841	5180.605957	2436.031738	29.360846
695.116333	1293.938477	5170.019531	2434.157227	29.416794
695.443848	1295.261719	5164.505371	2436.803467	29.502970
695.771301	1292.284302	5178.620605	2434.267334	29.384565
696.098755	1289.748047	5203.322266	2442.758301	29.461823
696.426147	1293.166626	5236.514160	2461.063477	29.616888
696.753418	1293.717896	5275.661133	2476.612061	29.706453
697.080688	1297.687744	5332.451660	2491.719238	29.593590
697.407898	1298.569946	5386.485352	2506.385498	29.546001
697.735107	1301.768066	5424.308594	2514.986816	29.428909
698.062317	1303.201660	5465.219727	2523.588135	29.321989
698.389404	1306.289307	5499.735352	2530.424805	29.191633
698.716492	1305.407104	5531.273438	2537.151611	29.147739
699.043457	1303.863281	5551.122559	2542.334473	29.159304
699.370483	1305.406982	5568.545410	2547.076172	29.125706
699.697388	1309.597412	5572.294434	2550.825439	29.118372
700.024292	1313.677490	5568.766113	2551.928467	29.100473
700.351135	1314.008423	5560.936523	2548.730225	29.073292
700.677917	1318.860352	5549.137695	2544.540039	28.973980
701.004639	1319.191162	5533.699219	2539.026123	28.943710
701.331299	1319.963013	5514.731934	2529.873779	28.843323
701.658020	1321.286133	5491.244629	2519.948975	28.745199
701.984619	1319.963013	5453.972168	2506.826904	28.709753
702.311218	1319.742432	5411.186523	2491.608887	28.641878
702.637756	1319.191040	5359.027344	2481.684570	28.775757
702.964233	1319.411621	5287.901855	2466.577148	28.906851
703.290649	1316.213867	5216.665527	2436.252197	28.715607
703.617065	1319.080933	5132.086914	2406.147705	28.509443
703.943481	1320.624756	5047.287109	2381.667236	28.471657
704.269775	1320.735107	4959.289551	2353.768311	28.391308
704.596008	1319.522095	4881.105957	2336.896484	28.565222
704.922241	1317.095947	4814.500977	2321.348145	28.714209
705.248474	1316.323975	4747.565430	2304.145508	28.789042
705.574585	1315.882935	4687.687500	2285.509766	28.756910
705.900696	1316.103271	4637.072266	2271.505127	28.768768
706.226746	1314.559570	4597.925781	2259.485352	28.779177
706.552734	1311.692505	4570.799316	2246.363037	28.678732
706.878723	1306.068604	4551.612305	2237.431152	28.696657
707.204651	1302.649902	4529.888672	2237.541260	28.968769
707.530518	1301.547363	4516.986328	2231.476074	28.920738
707.856323	1302.098633	4510.700684	2228.939697	28.886133
708.182068	1301.988403	4514.008789	2228.939453	28.858814
708.507813	1299.341797	4509.597656	2230.483398	29.005215
708.833496	1301.106201	4522.278809	2224.308105	28.660429
709.159180	1301.878052	4538.268066	2226.513672	28.569967
709.484802	1303.091187	4550.949219	2232.358154	28.611689
709.810303	1303.752563	4569.696289	2234.784180	28.507277
710.135864	1306.178711	4579.620117	2236.548828	28.421774
710.461304	1306.288818	4591.309570	2241.952148	28.482721
710.786743	1305.627319	4600.352051	2245.811768	28.536057
711.112122	1305.847900	4608.181152	2244.819092	28.433569
711.437500	1305.406860	4615.128418	2239.967041	28.236820
711.762817	1308.825195	4614.136230	2237.210449	28.087683
712.088013	1307.171143	4618.546875	2240.849365	28.196083
712.413269	1309.266357	4613.364258	2237.651123	28.097980
712.738403	1312.133423	4616.562012	2232.909912	27.864922
713.063538	1313.125977	4610.276855	2230.814697	27.832779
713.388611	1312.243652	4604.983398	2235.005127	28.024124
713.713623	1309.817749	4597.154297	2233.351074	28.093666
714.038574	1312.243652	4596.713379	2231.697021	27.993967
714.363525	1310.258789	4590.096680	2230.483887	28.057030
714.688477	1305.847900	4579.951660	2224.418945	28.055649
715.013306	1306.730103	4555.581543	2216.699707	28.008963
715.338135	1307.391724	4534.299316	2208.649902	27.929468
715.662842	1306.068604	4507.282227	2206.665039	28.132969
715.987549	1306.950684	4475.633789	2199.828125	28.178186
716.312195	1308.274048	4442.441406	2182.515137	27.893885
716.636841	1303.863037	4403.735840	2170.936768	27.971268
716.961426	1300.003540	4372.087891	2166.636230	28.209925
717.285950	1297.687744	4341.210938	2155.057373	28.170301
717.610474	1293.497437	4300.630371	2144.360840	28.294840
717.934937	1293.056396	4265.012695	2135.648926	28.351444
718.259277	1292.615234	4230.827637	2128.922607	28.463135
718.583679	1291.291992	4202.046875	2120.100830	28.474016
718.908020	1288.535156	4169.406738	2105.875488	28.371286
719.232239	1286.881104	4142.720703	2096.061279	28.334230
719.556519	1287.542725	4115.262695	2086.357422	28.249428
719.880737	1287.322144	4084.717285	2077.425293	28.244247
720.204834	1284.344727	4055.274902	2066.177490	28.215534
720.528931	1288.755615	4025.060303	2055.922363	28.036598
720.852966	1286.440063	3988.890625	2038.388916	27.824701
721.176941	1288.424805	3950.295410	2023.061035	27.598495
721.500916	1289.307129	3919.970703	2016.444580	27.640839
721.824829	1284.675537	3898.798096	2009.166504	27.714499
722.148743	1284.785767	3867.370117	2004.093994	27.852262
722.472534	1288.535034	3844.874268	1995.713379	27.663712
722.796326	1289.417236	3823.701660	1988.324951	27.578108
723.119995	1288.424805	3799.882813	1984.134644	27.701433
723.443665	1293.056396	3787.201172	1979.062134	27.504648
723.767334	1294.820801	3769.006348	1970.791626	27.320944
724.090942	1294.600220	3758.751221	1970.791626	27.441153
724.414551	1299.231689	3752.686035	1968.365723	27.273140
724.737976	1300.223999	3747.503418	1966.270630	27.215799
725.061462	1302.539795	3747.393555	1964.506348	27.075916
725.384888	1302.870728	3747.834717	1965.388550	27.097244
725.708252	1303.311768	3747.503662	1968.255737	27.205065
726.031616	1303.863159	3752.465820	1968.807129	27.156059
726.354858	1302.981079	3753.017090	1969.909790	27.221178
726.678162	1301.878296	3762.721436	1970.240356	27.159880
727.001404	1305.517334	3766.580811	1970.460693	27.018538
727.324463	1307.281860	3771.102051	1973.879272	27.055439
727.647583	1309.928345	3778.269775	1982.370361	27.242668
727.970642	1306.179077	3790.069092	1989.207275	27.498325
728.293701	1308.715210	3792.384766	1987.112183	27.314302
728.616699	1309.707642	3797.126221	1987.222412	27.237667
728.939575	1309.928223	3815.431152	1986.781494	27.014668
729.262512	1305.958252	3825.686768	1989.097290	27.111612
729.585266	1305.627441	3834.950195	1992.074585	27.139563
729.908142	1304.193848	3854.909180	1998.801025	27.231857
730.230896	1302.098633	3868.252197	2005.307129	27.403212
730.553467	1304.193848	3887.329346	2008.504883	27.265741
730.876160	1301.106201	3901.333740	2008.284424	27.196783
731.198792	1296.695313	3912.360840	2010.820679	27.301861
731.521362	1294.159058	3927.357910	2011.813110	27.254078
731.843872	1293.056152	3925.152832	2012.695557	27.340918
732.166321	1289.968506	3925.152832	2010.159058	27.329798
732.488770	1291.732910	3926.476074	2007.953491	27.183697
732.811157	1289.196655	3919.639404	2007.291870	27.299404
733.133484	1288.755615	3912.250732	2008.504883	27.434748
733.455811	1290.299438	3894.386475	2006.960938	27.520645
733.778015	1290.961182	3877.845947	1999.572754	27.392467
734.100281	1289.527710	3869.685547	1997.257080	27.429693
734.422424	1286.660522	3857.666016	1986.891357	27.235682
734.744507	1290.189331	3842.668945	1983.803711	27.174141
735.066589	1288.645508	3832.192627	1984.465576	27.356287
735.388611	1291.512695	3820.062988	1983.693604	27.374615
735.710571	1290.630493	3804.293945	1977.628662	27.330553
736.032532	1292.505005	3794.038574	1976.636353	27.348476
736.354431	1292.284424	3781.467529	1976.305298	27.479733
736.676270	1293.276733	3765.367920	1974.981934	27.576052
736.998108	1298.900879	3751.914551	1968.365479	27.291515
737.319824	1297.687866	3736.807373	1965.608765	27.383688
737.641541	1301.547485	3717.729980	1961.528687	27.315039
737.963135	1302.209106	3696.888672	1956.897095	27.339272
738.284790	1303.311890	3671.305176	1953.919800	27.475075
738.606323	1303.532227	3660.498047	1952.927490	27.552172
738.927856	1305.517334	3650.022217	1951.494019	27.552797
739.249390	1307.391968	3639.436279	1948.075684	27.473049
739.570740	1311.913086	3628.740234	1948.847412	27.491663
739.892212	1310.810303	3617.933350	1941.679932	27.344429
740.213562	1308.604858	3610.214355	1935.725220	27.247038
740.534790	1310.479614	3603.818359	1932.086182	27.104872
740.856079	1306.730347	3588.931641	1927.454590	27.198490
741.177246	1304.304443	3578.455322	1927.344360	27.396595
741.498413	1306.399536	3569.964600	1926.351929	27.388319
741.819580	1307.943237	3562.245605	1922.051147	27.241596
742.140625	1309.707642	3551.989990	1919.073853	27.176161
742.461670	1307.722534	3536.992920	1917.640015	27.359510
742.782654	1306.950562	3515.489990	1908.267090	27.226885
743.103577	1309.155884	3498.728760	1898.893799	26.933926
743.424438	1309.707275	3477.335938	1887.866577	26.672434
743.745300	1305.847900	3448.003418	1883.676392	26.974161
744.066101	1304.745117	3421.758545	1876.288330	26.997620
744.386902	1303.421875	3399.924561	1875.185425	27.272255
744.707581	1302.649902	3381.399170	1870.333496	27.308901
745.028198	1302.429443	3367.504395	1862.062866	27.099909
745.348816	1299.562378	3355.815430	1856.218384	27.071379
745.669373	1297.357056	3337.620605	1851.035522	27.137596
745.989929	1295.261963	3316.558350	1847.616943	27.326769
746.310364	1293.497437	3301.892090	1840.559570	27.238777
746.630798	1294.159180	3289.431641	1838.244019	27.268700
746.951172	1290.409912	3286.343750	1838.023438	27.436457
747.271545	1286.109375	3276.529297	1838.244019	27.739607
747.591858	1290.299683	3275.537109	1836.700195	27.523182
747.912109	1295.261841	3266.936035	1836.700317	27.460850
748.232300	1291.512695	3258.555176	1833.612549	27.559134
748.552429	1294.159180	3245.542725	1832.840820	27.605114
748.872559	1289.637817	3235.066895	1828.981201	27.723621
749.192627	1293.387329	3235.287598	1831.738037	27.722881
749.512695	1293.166626	3236.941162	1833.391968	27.792593
749.832642	1293.938477	3234.956543	1832.178955	27.729803
750.152588	1295.592651	3234.625732	1835.156250	27.826426
750.472473	1295.592651	3243.116455	1830.635010	27.472956
750.792358	1297.246704	3246.204346	1831.517334	27.413147
751.112122	1298.570068	3241.242188	1825.452148	27.121513
751.431824	1300.775391	3249.181641	1823.798218	26.843622
751.751587	1300.334351	3246.093750	1828.208862	27.129486
752.071228	1299.452148	3243.447510	1823.687866	26.966923
752.390869	1300.665161	3240.911133	1823.908447	26.967884
752.710327	1303.752808	3238.595215	1823.246826	26.849422
753.029846	1303.201416	3238.595215	1824.129150	26.915852
753.349304	1304.524780	3236.610596	1825.231812	26.950512
753.668762	1305.186279	3230.545654	1821.703125	26.827036
753.988098	1304.965820	3223.157471	1818.284546	26.760555
754.307434	1304.193848	3213.674072	1815.197144	26.761381
754.626770	1303.862915	3210.917480	1812.109375	26.650862
754.946045	1302.760376	3209.262939	1812.881470	26.756907
755.265259	1299.011108	3208.050293	1805.823975	26.548059
755.584351	1300.885742	3207.277832	1807.478027	26.573353
755.903442	1299.562500	3202.756592	1801.633545	26.380444
756.222534	1298.459839	3192.391357	1799.427979	26.451227
756.541565	1296.033813	3191.288330	1798.545898	26.514227
756.860535	1295.813354	3191.178223	1793.142456	26.239227
757.179443	1294.820923	3185.995605	1792.481201	26.314877
757.498291	1297.467529	3183.789795	1786.746826	25.938267
757.817139	1300.665405	3188.752197	1786.746826	25.744654
758.135925	1302.540039	3184.892822	1789.834229	25.887506
758.454651	1301.657837	3183.569092	1792.811768	26.098677
758.773376	1305.958374	3179.820313	1790.827026	25.875366
759.092041	1306.178955	3185.002930	1791.378174	25.824623
759.410645	1302.540039	3189.193359	1795.348022	26.120749
759.729187	1301.547485	3180.482178	1791.709106	26.087210
760.047607	1301.768188	3185.223633	1791.378296	25.995312
760.366089	1305.406982	3187.319092	1790.385986	25.770544
760.684509	1305.186523	3201.543945	1793.473633	25.748686
761.002869	1305.627563	3227.237305	1799.097290	25.680017
761.321228	1304.193970	3265.833008	1806.705933	25.616943
761.639465	1306.840576	3313.470703	1818.174316	25.482212
761.957642	1306.730225	3365.739990	1836.920776	25.749783
762.275879	1304.965820	3409.297607	1845.742554	25.698263
762.593994	1303.752930	3447.561768	1857.431396	25.826859
762.912109	1302.539673	3483.180176	1866.804688	25.876112
763.230103	1305.296387	3503.359863	1877.611206	26.037230
763.548157	1302.649780	3515.710449	1887.094849	26.408905
763.866150	1302.980713	3529.274170	1896.578369	26.663046
764.184021	1301.326660	3539.860596	1902.643188	26.862068
764.501892	1298.018555	3546.587158	1903.856445	26.943270
764.819702	1295.923340	3544.491699	1902.312744	26.967800
765.137451	1296.474731	3548.792725	1895.916870	26.614456
765.455200	1292.504883	3554.416748	1894.483276	26.613699
765.772888	1293.607666	3544.161377	1890.844360	26.537323
766.090515	1293.828247	3534.347168	1888.307983	26.533125
766.408081	1295.371948	3534.897949	1889.962036	26.549820
766.725586	1293.938477	3525.415283	1884.117432	26.447908
767.043091	1294.269287	3515.600342	1884.999634	26.593531
767.360535	1294.820679	3500.824463	1881.140015	26.578346
767.677917	1293.497437	3468.404053	1872.538818	26.623734
767.995239	1291.512573	3422.089355	1862.063110	26.779160
768.312500	1292.174194	3362.983643	1840.780518	26.492359
768.629822	1290.299561	3302.553467	1822.254517	26.435778
768.947021	1290.520142	3246.204346	1802.736206	26.191143
769.264160	1294.379639	3190.406738	1788.621460	26.067234
769.581299	1294.379639	3148.392822	1773.844849	25.860939
769.898376	1292.505005	3111.230713	1760.722412	25.744257
770.215393	1292.174072	3077.928467	1749.805664	25.626793
770.532349	1292.504883	3049.698975	1742.417358	25.604029
770.849304	1291.512451	3019.925293	1734.367432	25.622061
771.166199	1290.740601	2998.863281	1728.302246	25.616524
771.483032	1287.542725	2981.770752	1722.237305	25.657383
771.799866	1288.645508	2961.260010	1719.480713	25.758188
772.116577	1291.622803	2940.528564	1714.518188	25.647032
772.433350	1293.938599	2928.509033	1708.453369	25.359247
772.749939	1294.931030	2919.025391	1703.711548	25.169752
773.066589	1294.048828	2905.131348	1696.213013	24.962358
773.383057	1297.357178	2888.811035	1695.551392	25.020782
773.699646	1298.680420	2876.460205	1689.486450	24.769365
774.016113	1300.885864	2860.029785	1685.185669	24.648129
774.332520	1303.201660	2851.208008	1680.333740	24.362438
774.648804	1308.494751	2842.055176	1676.805298	24.016697
774.965149	1307.943359	2831.689697	1673.166138	23.968739
775.281433	1313.126099	2820.993164	1672.725098	23.848190
775.597656	1313.677490	2814.156494	1676.694946	24.193438
775.913879	1312.905640	2807.540283	1672.394165	24.051933
776.229980	1314.449463	2797.836426	1666.770264	23.751106
776.546082	1312.023315	2787.691162	1663.792969	23.837997
776.862122	1315.882935	2780.854248	1661.036133	23.560406
777.178162	1317.978149	2771.812012	1653.427246	23.073414
777.494141	1315.331421	2767.621582	1652.103760	23.189053
777.809998	1314.780151	2755.822266	1649.567505	23.232309
778.125854	1316.544556	2750.309082	1648.575195	23.157961
778.441711	1317.426758	2744.133789	1643.833496	22.878330
778.757446	1316.323975	2737.847900	1644.715576	23.101377
779.073181	1313.567017	2733.547363	1645.377075	23.367229
779.388855	1316.323853	2727.702637	1640.194580	22.947117
779.704468	1315.552124	2723.623047	1639.091919	22.977522
780.020020	1310.258911	2717.888672	1639.973755	23.423407
780.335571	1311.251343	2708.736328	1640.304688	23.546110
780.651062	1310.479492	2703.222168	1638.540405	23.555027
780.966553	1307.722656	2697.708740	1642.951294	24.117409
781.281860	1301.657471	2686.020020	1642.730713	24.637566
781.597290	1301.767944	2678.631592	1643.392334	24.811781
781.912476	1299.231812	2675.102783	1640.194336	24.781576
782.227722	1300.775635	2666.060547	1636.334839	24.577961
782.542908	1299.011108	2654.923096	1637.437500	24.959318
782.858093	1299.452148	2642.682373	1638.209473	25.219603
783.173218	1302.539917	2640.256836	1632.254883	24.647589
783.488281	1300.003662	2639.595215	1627.733643	24.464918
783.803345	1299.562622	2630.883789	1622.550781	24.260725
784.118225	1301.547485	2618.202148	1620.896729	24.254595
784.433167	1302.208862	2609.821533	1621.117188	24.388592
784.748047	1303.532227	2603.425537	1619.573486	24.312862
785.062866	1306.619995	2590.193115	1620.676025	24.467327
785.377686	1305.958374	2579.276123	1616.375366	24.378595
785.692444	1306.619995	2568.689697	1613.508423	24.316282
786.007141	1305.517334	2564.830078	1611.192871	24.273203
786.321716	1308.825439	2558.765137	1612.626465	24.305254
786.636353	1311.141113	2562.073242	1613.177979	24.144945
786.950928	1309.487061	2567.256104	1614.280518	24.232864
787.265442	1308.715088	2574.313721	1614.500977	24.161364
787.579834	1304.414551	2570.674561	1609.538818	24.096495
787.894226	1308.163696	2576.850098	1610.310791	23.815742
788.208618	1304.193970	2578.834961	1611.413452	24.102432
788.522949	1305.517212	2574.424072	1608.105103	23.846344
788.837219	1302.870605	2574.424072	1606.892334	23.909473
789.151367	1303.752808	2579.937500	1604.025146	23.528910
789.465515	1301.657593	2579.937744	1603.694336	23.628368
789.779602	1299.893188	2571.005615	1605.348389	24.030542
790.093689	1303.973267	2559.427002	1605.679077	24.031614
790.407776	1300.554688	2555.016113	1607.994995	24.507753
790.721741	1299.672607	2549.943848	1603.253174	24.281176
791.035645	1298.018555	2541.562988	1598.952515	24.199696
791.349548	1296.695190	2534.615967	1593.108032	23.944410
791.663391	1293.938477	2536.270020	1589.910156	23.823889
791.977173	1296.805664	2532.630859	1587.043213	23.485323
792.290894	1296.254150	2521.714111	1582.632202	23.369026
792.604614	1298.790771	2510.466064	1578.221313	23.061504
792.918274	1299.231812	2501.754639	1573.920776	22.842724
793.231812	1298.680542	2485.764893	1566.311890	22.545267
793.545410	1298.459839	2473.083496	1562.341919	22.465244
793.858948	1300.113892	2456.983398	1559.254395	22.400150
794.172363	1304.524780	2451.690186	1563.334473	22.560801
794.485840	1302.209106	2442.427490	1559.916016	22.601540
794.799194	1308.494629	2439.449951	1559.805664	22.221128
795.112488	1307.171265	2438.126953	1557.379639	22.123623
795.425781	1309.156128	2435.370117	1555.615234	21.883862
795.738953	1305.958374	2428.533203	1556.497437	22.318251
796.052185	1307.061035	2428.753906	1558.151489	22.384956
796.365234	1307.171265	2428.754150	1554.843506	22.082384
796.678284	1305.627441	2429.966797	1555.946167	22.263628
796.991333	1308.825317	2427.540771	1553.851074	21.902420
797.304382	1309.927979	2429.305176	1554.071655	21.810671
797.617310	1312.023193	2428.974121	1555.174438	21.769197
797.930115	1312.574463	2422.468262	1551.866211	21.559877
798.242981	1314.890259	2417.726318	1547.896484	21.127911
798.555786	1313.236084	2413.425781	1550.542969	21.569633
798.868530	1317.205933	2412.764160	1549.109375	21.167604
799.181213	1313.346436	2411.110352	1548.227173	21.396288
799.493896	1313.125854	2406.479004	1547.344971	21.422092
799.806519	1316.985474	2406.037842	1544.147095	20.858650
800.119080	1318.198608	2402.068115	1536.758667	20.164795
800.431580	1315.000610	2392.033203	1535.214844	20.446384
800.744080	1313.897949	2382.329346	1523.526001	19.620169
801.056458	1315.000732	2373.948486	1518.784180	19.243958
801.368835	1312.133667	2360.054199	1512.278198	19.099209
801.681152	1314.890381	2348.144531	1512.388428	19.114180
801.993408	1316.765015	2338.440430	1508.970093	18.812735
802.305664	1319.962891	2329.397949	1504.779663	18.308931
802.617798	1320.845093	2318.812012	1504.448730	18.397768
802.929993	1320.403809	2310.431396	1504.559082	18.601025
803.242065	1321.396240	2301.058105	1505.551636	18.797853
803.554016	1318.418945	2295.985596	1508.418701	19.435989
803.865967	1318.639404	2289.479492	1507.977661	19.502518
804.177979	1316.103271	2288.045898	1508.088013	19.752682
804.489807	1314.890381	2288.045654	1514.042725	20.464602
804.801697	1311.251343	2286.281494	1515.586426	20.956797
805.113464	1310.369263	2280.547363	1511.837036	20.766060
805.425232	1306.730225	2282.311523	1511.395996	20.978853
805.736938	1305.627563	2277.900879	1511.506348	21.174992
806.048584	1300.554932	2273.269287	1509.852173	21.516825
806.360168	1297.467285	2267.535400	1510.183105	21.927927
806.671753	1296.915771	2257.280029	1513.050171	22.505461
806.983276	1298.790527	2257.831299	1512.388428	22.272036
807.294739	1300.223999	2252.979248	1516.248047	22.673615
807.606140	1301.437012	2248.568359	1516.689209	22.726753
807.917542	1301.326782	2247.906738	1516.468506	22.728321
808.228760	1301.216431	2242.393311	1515.145264	22.729929
808.540100	1300.223999	2231.917236	1515.255493	23.079645
808.851318	1297.026123	2225.080322	1511.506104	23.110718
809.162476	1297.356934	2217.361328	1509.080322	23.013302
809.473633	1297.246704	2212.840088	1505.772095	22.774891
809.784668	1291.071411	2206.113525	1498.714600	22.692200
810.095703	1295.813110	2194.975830	1491.877808	21.805252
810.406738	1298.570068	2186.594971	1488.679932	21.408169
810.717590	1302.870605	2174.465332	1484.048340	20.786924
811.028503	1303.311890	2163.548096	1477.652588	20.266607
811.339294	1303.201416	2153.733887	1474.234131	20.108898
811.650085	1302.209106	2148.661377	1476.219116	20.557570
811.960876	1299.231812	2137.082764	1474.234131	20.887047
812.271545	1301.988525	2129.143311	1467.728027	20.037302
812.582153	1309.045898	2126.496582	1464.971313	19.074596
812.892761	1307.281616	2116.902832	1460.339966	18.904934
813.203308	1302.980957	2115.579590	1455.929077	18.822100
813.513855	1303.973511	2111.058594	1455.818726	18.814028
813.824280	1303.311768	2107.530029	1455.046875	18.867403
814.134705	1301.988525	2105.765869	1452.510620	18.726839
814.445068	1301.437012	2096.943604	1451.187378	18.824528
814.755371	1301.437012	2098.156738	1453.613525	19.100382
815.065613	1299.562378	2102.016113	1450.856567	18.853945
815.375854	1302.980835	2101.354492	1452.179932	18.687878
815.686035	1302.208984	2104.111328	1446.004639	17.931816
815.996155	1303.311646	2104.442139	1447.989624	18.059227
816.306152	1308.053467	2105.544922	1447.548462	17.491722
816.616211	1306.840454	2114.036133	1453.833984	18.210396
816.926208	1303.091187	2117.675049	1459.457886	19.195900
817.236145	1303.752930	2126.166016	1459.127075	18.892469
817.546021	1304.524780	2139.619141	1462.104370	18.869675
817.855774	1305.186401	2151.638916	1466.735718	19.085455
818.165588	1305.958252	2168.951660	1471.808228	19.217989
818.475281	1309.928101	2192.218750	1481.071289	19.397598
818.784973	1305.406860	2222.102783	1496.399048	20.834846
819.094604	1299.231689	2250.112061	1504.007813	21.535425
819.404175	1298.790405	2295.434082	1520.769287	22.272642
819.713684	1298.680298	2358.620117	1547.675903	23.491486
820.023254	1297.577515	2484.661865	1592.336304	24.830484
820.332642	1295.923340	2704.766113	1669.527100	26.518484
820.642090	1295.923584	2994.231445	1767.338867	27.757940
820.951416	1296.144043	3298.804688	1863.717285	28.340960
821.260681	1292.725586	3552.982910	1939.474365	28.613945
821.569946	1293.497559	3751.914551	2001.667969	28.805952
821.879150	1294.159180	3915.779785	2046.548950	28.699415
822.188293	1295.592773	4045.460449	2089.445068	28.868746
822.497437	1298.018799	4152.204102	2120.762207	28.825859
822.806458	1298.018799	4247.811035	2144.801758	28.706530
823.115479	1298.790649	4328.861328	2162.334961	28.499146
823.424438	1300.334473	4405.721191	2176.891113	28.226973
823.733337	1295.813232	4468.245605	2196.078369	28.377756
824.042236	1296.144043	4520.073730	2208.759766	28.307556
824.351013	1295.372192	4567.932129	2224.087891	28.378874
824.659790	1297.467407	4607.079102	2235.666748	28.347715
824.968445	1297.908447	4665.522949	2251.656006	28.321161
825.277100	1301.106445	4735.656250	2270.292236	28.218714
825.585693	1304.635010	4822.220703	2301.609619	28.342583
825.894287	1309.376709	4879.562012	2322.451172	28.375963
826.202820	1314.890381	4901.395996	2321.238037	28.059280
826.511292	1313.787720	4834.019531	2294.882813	27.870184
826.819702	1316.213745	4662.435059	2227.947266	27.246660
827.128113	1320.073242	4409.911133	2145.683838	26.720192
827.436401	1319.962769	4141.618164	2061.104736	26.266212
827.744751	1321.506592	3911.148438	1991.081787	25.855900
828.052917	1322.057983	3731.293945	1938.592041	25.590441
828.361145	1319.521729	3583.308105	1893.049683	25.334898
828.669312	1320.183350	3465.977295	1857.210938	25.026987
828.977356	1315.993164	3366.732178	1825.342285	24.837345
829.285400	1312.464233	3275.867920	1801.523438	24.908745
829.593384	1310.920532	3197.353516	1781.012817	24.919640
829.901306	1307.833008	3122.257813	1763.038086	25.088120
830.209167	1312.133667	3057.858887	1742.196655	24.635204
830.517029	1312.795288	2998.532471	1729.294678	24.707254
830.824829	1314.669922	2946.704346	1711.651245	24.324324
831.132568	1311.802856	2898.073975	1696.433594	24.247478
831.440247	1308.935791	2841.724609	1679.782227	24.194229
831.747925	1308.384399	2783.059814	1663.682495	24.093307
832.055481	1305.848022	2716.786133	1645.046509	24.040636
832.363037	1306.178833	2668.706787	1625.528320	23.438013
832.670532	1304.635010	2628.898438	1618.581055	23.707220
832.977966	1306.178833	2611.034180	1609.759277	23.265448
833.285400	1308.825317	2591.847168	1602.701782	22.905024
833.592712	1306.840454	2572.659668	1592.115723	22.536810
833.900085	1307.391724	2552.700195	1587.043213	22.456404
834.207275	1302.760254	2539.798096	1579.213867	22.348032
834.514526	1301.767822	2527.668213	1570.722900	21.939390
834.821716	1302.760376	2517.964111	1573.920532	22.313967
835.128784	1303.091187	2508.921631	1572.707642	22.359400
835.435852	1306.399292	2503.297852	1570.722900	22.084044
835.742798	1308.163696	2494.696533	1567.635010	21.868027
836.049805	1307.722534	2485.323730	1563.775635	21.743618
836.356750	1309.597168	2474.847656	1558.372192	21.349489
836.663574	1306.950562	2463.930664	1557.269531	21.635546
836.970398	1307.060913	2452.021484	1549.219604	21.149960
837.277161	1304.524658	2437.244629	1544.918945	21.222746
837.583923	1305.075928	2424.122314	1538.854004	20.890829
837.890564	1308.053345	2396.774658	1525.511108	19.973684
838.197205	1308.604858	2354.650391	1516.358521	19.860863
838.503784	1311.692505	2308.005371	1493.973145	18.295523
838.810303	1309.376709	2257.059326	1481.401855	18.152189
839.116699	1306.509766	2211.626953	1466.845947	17.714411
839.423096	1309.046021	2160.791260	1451.959229	16.778868
839.729492	1308.715210	2120.541992	1440.601196	16.245583
840.035828	1304.745361	2089.996582	1429.904785	15.938775
840.342102	1302.760620	2067.500732	1417.333618	14.981953
840.648315	1308.494751	2039.601807	1410.276123	13.921541
840.954529	1311.692505	2021.517090	1403.218628	12.894189
841.260620	1313.015747	2003.432251	1394.176392	11.755317
841.566711	1310.258911	1989.207275	1385.244385	11.044356
841.872803	1309.707397	1968.365845	1381.164307	10.848856
842.178772	1312.795044	1954.250977	1378.076660	10.177101
842.484680	1310.920532	1935.394165	1377.415039	10.648088
842.790588	1312.574585	1921.830688	1371.901367	9.737577
843.096436	1313.567017	1911.354858	1366.828857	8.909823
843.402222	1314.118286	1899.996826	1365.836304	8.827430
843.707947	1315.551880	1889.300415	1363.961670	8.437458
844.013611	1315.993042	1878.162720	1359.440552	7.728540
844.319275	1313.125977	1861.070679	1360.653564	8.673793
844.624817	1314.118530	1844.529785	1354.257568	7.567532
844.930359	1311.913086	1820.380005	1351.611084	7.807391
845.235901	1311.030884	1800.530884	1344.222900	6.780800
845.541321	1315.993164	1778.035400	1341.465942	5.513084
845.846680	1311.913086	1765.354004	1340.363403	6.274316
846.152039	1311.472046	1751.459839	1338.929688	6.240546
846.457275	1316.323975	1736.793335	1338.378296	5.245167
846.762512	1318.308838	1724.553223	1340.473633	5.456025
847.067749	1316.654785	1716.392822	1338.157837	5.379286
847.372925	1315.110840	1705.365479	1340.914673	6.612051
847.677979	1313.125977	1699.410889	1339.370728	6.794143
847.983032	1314.669922	1687.391235	1336.283081	5.798745
848.288025	1310.369263	1681.767456	1337.055054	7.185224
848.592957	1309.045898	1679.782349	1338.268066	7.882195
848.897888	1312.905518	1675.812744	1335.180420	6.137906
849.202759	1312.133667	1675.151001	1335.621582	6.470191
849.507507	1308.715210	1670.739990	1336.944824	7.797702
849.812317	1308.825439	1668.093506	1339.260620	8.471440
850.117004	1308.163818	1667.211182	1337.716797	8.230942
850.421631	1305.958374	1663.682617	1335.621704	8.292233
850.726257	1304.745361	1661.146240	1332.975220	7.920816
851.030823	1304.635010	1660.154053	1330.107910	7.164989
851.335327	1303.421875	1660.264282	1327.351074	6.705817
851.639771	1301.326782	1656.404785	1328.012695	7.515507
851.944153	1296.805664	1654.419800	1319.852661	6.444655
852.248535	1297.136353	1657.507446	1317.867798	5.752805
852.552856	1295.041260	1663.792725	1316.103271	5.711709
852.857056	1291.733032	1663.131104	1313.567017	5.878863
853.161255	1286.770874	1662.579834	1310.589844	6.338053
853.465393	1284.124268	1660.594727	1313.787720	7.879357
853.769531	1279.382568	1652.765381	1309.376831	8.033113
854.073547	1280.044189	1649.788086	1308.935791	7.813950
854.377563	1280.375000	1644.715576	1311.361816	8.504904
854.681580	1280.485474	1645.156616	1305.517334	6.864228
854.985474	1280.926392	1640.194336	1303.422119	6.261546
855.289307	1279.492920	1640.525269	1300.444702	5.803298
855.593140	1276.736084	1639.312134	1303.422119	7.360121
855.896851	1277.066895	1640.525269	1303.422119	7.251236
856.200623	1276.736084	1638.981445	1296.916016	5.570791
856.504272	1275.633423	1635.783691	1295.151611	5.419457
856.807922	1278.169678	1635.452759	1296.805664	5.216028
857.111389	1280.044312	1639.312256	1296.144165	4.481294
857.414978	1278.390259	1637.768555	1298.018677	5.461771
857.718445	1279.382568	1635.121826	1299.121460	5.548697
858.021790	1284.565308	1632.585693	1298.459839	3.992448
858.325195	1287.322144	1635.452881	1303.642578	4.688019
858.628479	1291.071655	1630.380371	1302.760376	3.444863
858.931763	1289.637817	1624.315308	1303.311646	4.085673
859.234985	1288.866089	1626.410522	1306.288940	5.161647
859.538147	1291.071533	1623.763916	1307.281494	4.872357
859.841248	1294.710571	1626.410522	1305.516968	3.257883
860.144287	1297.687866	1629.828857	1306.288818	2.589549
860.447266	1298.459717	1628.615723	1305.958130	2.271173
860.750305	1296.915894	1632.585571	1303.201416	1.872532
861.053223	1299.121338	1634.680786	1305.847900	2.004581
861.356018	1295.592651	1635.342407	1305.296631	2.856214
861.658813	1294.489746	1634.460205	1303.973389	2.789549
861.961609	1299.672607	1630.049316	1301.216553	0.467329
862.264343	1299.562256	1629.056885	1299.672607	0.033491
862.567017	1301.216309	1630.821289	1303.642456	0.736077
862.869629	1302.539673	1627.843994	1306.178833	1.118694
863.172180	1302.429443	1623.322754	1306.950806	1.408992
863.474670	1302.980713	1619.463135	1304.414551	0.453055
863.777161	1304.083496	1617.037231	1300.885742	-1.021798
864.079590	1303.973267	1616.044800	1294.600220	-3.003493
864.381958	1302.760254	1622.330322	1289.637939	-4.106240
864.684265	1300.665161	1622.991943	1286.550415	-4.379017
864.986511	1297.246704	1621.889160	1284.896240	-3.804328
865.288757	1299.341797	1621.338013	1283.683228	-4.862967
865.590942	1301.988281	1621.117432	1281.367554	-6.461562
865.893066	1303.642578	1622.661133	1280.816162	-7.155200
866.195068	1301.988403	1619.352905	1278.941650	-7.261919
866.497131	1300.223999	1619.353027	1281.257324	-5.943262
866.799133	1304.193848	1623.874023	1280.264893	-7.485280
867.100952	1304.965698	1619.794067	1280.154541	-7.880852
867.402832	1306.619751	1616.816650	1278.500488	-9.064972
867.704651	1309.597168	1615.272827	1275.743530	-11.075019
868.006409	1309.045898	1617.808960	1276.625610	-10.500054
868.308105	1307.612305	1620.345459	1273.427856	-10.930868
868.609802	1310.810303	1620.896973	1272.104614	-12.482216
868.911438	1310.148682	1618.360474	1271.663452	-12.486618
869.213013	1310.479370	1617.478394	1269.788818	-13.254293
869.514465	1310.258911	1621.117432	1267.803955	-13.657324
869.815979	1312.133545	1620.345459	1268.686157	-14.096596
870.117371	1311.802734	1622.771362	1267.032227	-14.397114
870.418701	1315.000610	1624.425537	1271.553345	-14.041295
870.720093	1317.536987	1622.440674	1272.214844	-14.864413
871.021301	1319.080811	1621.558350	1273.317383	-15.129529
871.322571	1320.955322	1622.550781	1272.766113	-15.978095
871.623718	1319.301392	1625.638550	1273.868896	-14.830879
871.924805	1318.088379	1625.417969	1276.625732	-13.491264
872.225891	1318.970581	1625.528442	1279.051758	-13.021627
872.526917	1321.396484	1629.277588	1278.941650	-13.789360
872.827881	1323.491699	1626.631104	1275.743530	-15.751225
873.128784	1318.970459	1619.242920	1276.846436	-14.028601
873.429626	1317.867798	1620.345581	1280.154663	-12.468068
873.730408	1317.757568	1618.691406	1279.713501	-12.642004
874.031189	1314.338989	1621.338013	1281.808716	-10.596214
874.331848	1314.780151	1621.227661	1283.242188	-10.291473
874.632568	1311.692627	1620.786499	1286.660767	-8.098465
874.933167	1311.251343	1620.896973	1288.645508	-7.300550
875.233704	1309.156250	1623.102295	1286.660645	-7.165437
875.534241	1308.494629	1626.630981	1287.873657	-6.481803
875.834717	1307.171509	1627.513184	1282.801025	-7.607653
876.135071	1303.752930	1634.570679	1283.793457	-6.033374
876.435425	1302.539917	1634.019165	1285.888550	-5.023351
876.735779	1304.635132	1635.893799	1285.226929	-5.858927
877.036011	1298.901001	1636.004150	1287.432495	-3.402076
877.336182	1297.246948	1638.650635	1289.307007	-2.325675
877.636353	1294.931152	1645.928589	1289.637817	-1.508084
877.936462	1294.931030	1651.001099	1291.733032	-0.898137
878.236511	1297.908447	1661.366821	1293.938477	-1.092277
878.536560	1297.798218	1679.782349	1297.687866	-0.028889
878.836487	1297.246826	1703.049805	1314.008057	4.130386
879.136414	1294.379639	1762.486816	1334.518677	8.574754
879.436279	1291.843506	1852.138428	1363.630615	12.812379
879.736084	1293.276855	1963.513550	1396.822876	15.449172
880.035828	1290.961182	2086.908691	1435.749023	18.190626
880.335510	1293.938477	2202.694824	1471.367188	19.524343
880.635193	1293.276855	2303.594238	1502.905151	20.748756
880.934753	1297.797852	2393.576904	1524.739014	20.710485
881.234314	1296.474854	2473.193359	1542.934204	20.944632
881.533752	1298.569946	2539.467529	1564.547607	21.434296
881.833252	1297.798096	2600.889404	1580.316650	21.680641
882.132629	1298.570068	2658.892822	1601.488892	22.268158
882.431946	1298.680298	2704.766113	1613.287964	22.374714
882.731323	1299.893433	2746.559326	1621.558228	22.234905
883.030579	1298.459839	2780.192627	1632.585571	22.549662
883.329712	1298.018677	2813.053955	1638.760742	22.490702
883.628845	1298.790527	2833.675049	1644.825928	22.544720
883.927979	1298.900879	2847.128174	1649.236938	22.628206
884.226990	1299.452148	2858.045166	1652.986206	22.682898
884.526001	1296.144043	2861.684082	1650.670410	22.645628
884.824951	1296.695435	2855.398682	1650.008789	22.667133
885.123840	1295.702881	2838.306396	1639.863647	22.310385
885.422729	1297.687744	2793.645996	1619.683838	21.524405
885.721497	1300.223999	2709.948975	1590.130615	20.564764
886.020203	1301.216553	2605.962158	1557.379761	19.633192
886.318909	1302.760376	2484.331299	1523.526001	18.684078
886.617554	1302.980835	2367.773193	1487.577148	17.336367
886.916138	1302.980957	2268.858643	1457.472778	15.994967
887.214661	1300.554932	2181.522705	1433.433472	15.083246
887.513184	1301.106323	2099.369629	1415.017944	14.269931
887.811523	1298.018677	2028.905518	1395.830566	13.382631
888.109924	1303.752808	1794.686401	1398.697510	19.339622
888.408264	1292.174194	1871.105347	1273.648438	-3.199993
888.706543	1294.489868	1690.478760	1280.595581	-3.508757
889.004761	1331.541504	1743.740479	1336.172974	1.123600
889.302979	1313.015747	1655.742920	1361.645874	14.189166
889.601135	1329.225830	1637.217163	1278.279907	-16.541349
889.899170	1282.911255	1678.900146	1329.225830	11.695928
890.197205	1313.015747	1667.321533	1248.175415	-18.300671
890.495178	1299.121338	1597.849854	1306.068604	2.325612
890.793091	1271.332642	1570.061157	1313.015747	13.953507
>>>>>End Processed Spectral Data<<<<<
